"rt","stimulus","button_pressed","trial_type","trial_index","time_elapsed","internal_node_id","subject","list","condition","ppt_gender","url","key_press","sentence_type","verb","test_part","responses","question_order","left_part","right_part"
"8686","Welcome to the experiment. Press Continue to begin.","0","html-button-response","0","8690","0.0-0.0","37247","1B","conjoined","woman","","","","","","","","",""
"7695","","","external-html","1","17466","0.0-1.0","37247","1B","conjoined","woman","consent.html","","","","","","","",""
"2619","<p>Welcome.</p><p>In this experiment we will ask you to imagine some situations.</p><p>Each trial starts with a description of an event.</p><p>Then you will see alternative descriptions of that event, and you will rate on a scale how best they match the original description.</p><p>You will give your answer by clicking a button on a rating scale.</p><p>To do this task, you will have to use your imagination to visualise these events.</p><br><p>Ready?</p>","0","html-button-response","2","20087","0.0-2.0","37247","1B","conjoined","woman","","","","","","","","",""
"2510","<p>Before the experiment starts, you will watch an example trial. Press 'Continue'.</p>","0","html-button-response","3","23598","0.0-3.0","37247","1B","conjoined","woman","","","","","","","","",""
"null","The police officer is arresting the robber","","html-keyboard-response","4","26602","0.0-4.0","37247","1B","conjoined","woman","","null","","","","","","",""
"9803","<img src='img/Example-trial.jpg' style='height:550px;''></img>","0","html-button-response","5","36406","0.0-5.0","37247","1B","conjoined","woman","","","","","","","","",""
"2511","<p>Ready to start the experiment?</p><br><p><strong>Remember to give an answer by clicking a button on the rating scale.</strong></p><p>Press 'Continue' to begin.</p>","0","html-button-response","6","39919","0.0-6.0","37247","1B","conjoined","woman","","","","","","","","",""
"null","Luke is posing for Mike","","html-keyboard-response","7","42922","0.0-7.0-0.0","37247","1B","conjoined","woman","","null","M2 is posing for M4","pose","sentence","","","",""
"9088","","","survey-likert-extra-labels","8","52012","0.0-7.0-2.0","37247","1B","conjoined","woman","","","M2 is posing for M4","pose","rating_volition","{""Q0"":0}","[0]","M2 is modelling for M4","M4 is modelling for M2"
"4406","","","survey-likert-extra-labels","9","56421","0.0-7.0-3.0-0.0","37247","1B","conjoined","woman","","","M2 is posing for M4","pose","rating_causation","{""Q0"":6}","[0]","M2 is photographing M4","M4 is photographing M2"
"null","Kate and Dave are marrying each other","","html-keyboard-response","10","58423","0.0-8.0-0.0","37247","1B","conjoined","woman","","null","W1 and M3 are marrying each other","marry3","sentence","","","",""
"6183","","","survey-likert-extra-labels","11","64608","0.0-8.0-1.0-0.0","37247","1B","conjoined","woman","","","W1 and M3 are marrying each other","marry3","rating_causation","{""Q0"":3}","[0]","M3 asked to marry W1","W1 asked to marry M3"
"3551","","","survey-likert-extra-labels","12","68161","0.0-8.0-2.0","37247","1B","conjoined","woman","","","W1 and M3 are marrying each other","marry3","rating_volition","{""Q0"":3}","[0]","M3 wanted to marry W1","W1 wanted to marry M3"
"null","Luke is reminding Jane","","html-keyboard-response","13","70164","0.0-9.0-0.0","37247","1B","conjoined","woman","","null","M2 is reminding W4","remind","sentence","","","",""
"7121","","","survey-likert-extra-labels","14","77286","0.0-9.0-1.0-0.0","37247","1B","conjoined","woman","","","M2 is reminding W4","remind","rating_causation","{""Q0"":0}","[0]","M2 is remembering","W4 is remembering"
"6231","","","survey-likert-extra-labels","15","83519","0.0-9.0-2.0","37247","1B","conjoined","woman","","","M2 is reminding W4","remind","rating_volition","{""Q0"":0}","[0]","M2 is telling W4 again","W4 is telling M2 again"
"null","Luke and Jane are talking to each other","","html-keyboard-response","16","85521","0.0-10.0-0.0","37247","1B","conjoined","woman","","null","M2 and W4 are talking to each other","talk4","sentence","","","",""
"3382","","","survey-likert-extra-labels","17","88904","0.0-10.0-2.0","37247","1B","conjoined","woman","","","M2 and W4 are talking to each other","talk4","rating_volition","{""Q0"":3}","[0]","M2 wanted to talk to W4","W4 wanted to talk to M2"
"2893","","","survey-likert-extra-labels","18","91800","0.0-10.0-3.0-0.0","37247","1B","conjoined","woman","","","M2 and W4 are talking to each other","talk4","rating_causation","{""Q0"":3}","[0]","M2 started a conversation with W4","W4 started a conversation with M2"
"null","Dave and Kate are touching each other","","html-keyboard-response","19","93801","0.0-11.0-0.0","37247","1B","conjoined","woman","","null","M3 and W1 are touching each other","touch4","sentence","","","",""
"2273","","","survey-likert-extra-labels","20","96076","0.0-11.0-1.0-0.0","37247","1B","conjoined","woman","","","M3 and W1 are touching each other","touch4","rating_causation","{""Q0"":3}","[0]","M3 asked to touch W1","W1 asked to touch M3"
"2196","","","survey-likert-extra-labels","21","98275","0.0-11.0-2.0","37247","1B","conjoined","woman","","","M3 and W1 are touching each other","touch4","rating_volition","{""Q0"":3}","[0]","M3 wanted to touch W1","W1 wanted to touch M3"
"null","Mike and Luke are fighting each other","","html-keyboard-response","22","100277","0.0-12.0-0.0","37247","1B","conjoined","woman","","null","M4 and M2 are fighting each other","fight2","sentence","","","",""
"1459","","","survey-likert-extra-labels","23","101737","0.0-12.0-2.0","37247","1B","conjoined","woman","","","M4 and M2 are fighting each other","fight2","rating_volition","{""Q0"":3}","[0]","M2 wanted to fight M4","M4 wanted to fight M2"
"3577.9999999999854","","","survey-likert-extra-labels","24","105317","0.0-12.0-3.0-0.0","37247","1B","conjoined","woman","","","M4 and M2 are fighting each other","fight2","rating_causation","{""Q0"":3}","[0]","M2 started the fight with M4","M4 started the fight with M2"
"null","Ruth and Jane are touching each other","","html-keyboard-response","25","107320","0.0-13.0-0.0","37247","1B","conjoined","woman","","null","W2 and W4 are touching each other","touch1","sentence","","","",""
"1378","","","survey-likert-extra-labels","26","108700","0.0-13.0-1.0-0.0","37247","1B","conjoined","woman","","","W2 and W4 are touching each other","touch1","rating_causation","{""Q0"":3}","[0]","W2 asked to touch W4","W4 asked to touch W2"
"1749","","","survey-likert-extra-labels","27","110450","0.0-13.0-2.0","37247","1B","conjoined","woman","","","W2 and W4 are touching each other","touch1","rating_volition","{""Q0"":3}","[0]","W2 wanted to touch W4","W4 wanted to touch W2"
"null","Ruth and Mike are talking to each other","","html-keyboard-response","28","112452","0.0-14.0-0.0","37247","1B","conjoined","woman","","null","W2 and M4 are talking to each other","talk3","sentence","","","",""
"22791","","","survey-likert-extra-labels","29","135244","0.0-14.0-2.0","37247","1B","conjoined","woman","","","W2 and M4 are talking to each other","talk3","rating_volition","{""Q0"":3}","[0]","W2 wanted to talk to M4","M4 wanted to talk to W2"
"1695","","","survey-likert-extra-labels","30","136941","0.0-14.0-3.0-0.0","37247","1B","conjoined","woman","","","W2 and M4 are talking to each other","talk3","rating_causation","{""Q0"":3}","[0]","W2 started a conversation with M4","M4 started a conversation with W2"
"null","Jane and Luke are arguing with each other","","html-keyboard-response","31","138942","0.0-15.0-0.0","37247","1B","conjoined","woman","","null","W4 and M2 are arguing with each other","argue4","sentence","","","",""
"1560","","","survey-likert-extra-labels","32","140504","0.0-15.0-1.0-0.0","37247","1B","conjoined","woman","","","W4 and M2 are arguing with each other","argue4","rating_causation","{""Q0"":3}","[0]","M2 started an argument with W4","W4 started an argument with M2"
"1555","","","survey-likert-extra-labels","33","142062","0.0-15.0-2.0","37247","1B","conjoined","woman","","","W4 and M2 are arguing with each other","argue4","rating_volition","{""Q0"":3}","[0]","M2 wanted to argue with W4","W4 wanted to argue with M2"
"null","Fred and Beth are marrying each other","","html-keyboard-response","34","144065","0.0-16.0-0.0","37247","1B","conjoined","woman","","null","M1 and W3 are marrying each other","marry4","sentence","","","",""
"6506","","","survey-likert-extra-labels","35","150573","0.0-16.0-1.0-0.0","37247","1B","conjoined","woman","","","M1 and W3 are marrying each other","marry4","rating_causation","{""Q0"":3}","[0]","W3 asked to marry M1","M1 asked to marry W3"
"59301","","","survey-likert-extra-labels","36","209874","0.0-16.0-2.0","37247","1B","conjoined","woman","","","M1 and W3 are marrying each other","marry4","rating_volition","{""Q0"":3}","[0]","W3 wanted to marry M1","M1 wanted to marry W3"
"null","Ruth and Jane are playing with each other","","html-keyboard-response","37","211877","0.0-17.0-0.0","37247","1B","conjoined","woman","","null","W2 and W4 are playing with each other","play1","sentence","","","",""
"29298.99999999997","","","survey-likert-extra-labels","38","241177","0.0-17.0-2.0","37247","1B","conjoined","woman","","","W2 and W4 are playing with each other","play1","rating_volition","{""Q0"":3}","[0]","W2 wanted to play with W4","W4 wanted to play with W2"
"4811.000000000029","","","survey-likert-extra-labels","39","245990","0.0-17.0-3.0-0.0","37247","1B","conjoined","woman","","","W2 and W4 are playing with each other","play1","rating_causation","{""Q0"":3}","[0]","W2 asked to play with W4","W4 asked to play with W2"
"null","Ruth is carrying Jane","","html-keyboard-response","40","247992","0.0-18.0-0.0","37247","1B","conjoined","woman","","null","W2 is carrying W4","carry","sentence","","","",""
"2708","","","survey-likert-extra-labels","41","250702","0.0-18.0-2.0","37247","1B","conjoined","woman","","","W2 is carrying W4","carry","rating_volition","{""Q0"":0}","[0]","W2 is transporting W4","W4 is transporting W2"
"4227.999999999971","","","survey-likert-extra-labels","42","254932","0.0-18.0-3.0-0.0","37247","1B","conjoined","woman","","","W2 is carrying W4","carry","rating_causation","{""Q0"":6}","[0]","W2 is being moved by W4","W4 is being moved by W2"
"null","Mike and Ruth are arguing with each other","","html-keyboard-response","43","256933","0.0-19.0-0.0","37247","1B","conjoined","woman","","null","M4 and W2 are arguing with each other","argue3","sentence","","","",""
"2012","","","survey-likert-extra-labels","44","258947","0.0-19.0-1.0-0.0","37247","1B","conjoined","woman","","","M4 and W2 are arguing with each other","argue3","rating_causation","{""Q0"":3}","[0]","W2 started an argument with M4","M4 started an argument with W2"
"4035","","","survey-likert-extra-labels","45","262984","0.0-19.0-2.0","37247","1B","conjoined","woman","","","M4 and W2 are arguing with each other","argue3","rating_volition","{""Q0"":3}","[0]","W2 wanted to argue with M4","M4 wanted to argue with W2"
"null","Kate and Beth are dancing with each other","","html-keyboard-response","46","264986","0.0-20.0-0.0","37247","1B","conjoined","woman","","null","W1 and W3 are dancing with each other","dance1","sentence","","","",""
"4162","","","survey-likert-extra-labels","47","269150","0.0-20.0-1.0-0.0","37247","1B","conjoined","woman","","","W1 and W3 are dancing with each other","dance1","rating_causation","{""Q0"":3}","[0]","W1 asked W3 to dance","W3 asked W1 to dance"
"2626.000000000058","","","survey-likert-extra-labels","48","271778","0.0-20.0-2.0","37247","1B","conjoined","woman","","","W1 and W3 are dancing with each other","dance1","rating_volition","{""Q0"":3}","[0]","W1 wanted to dance with W3","W3 wanted to dance with W1"
"null","Jane and Luke are kissing each other","","html-keyboard-response","49","273780","0.0-21.0-0.0","37247","1B","conjoined","woman","","null","W4 and M2 are kissing each other","kiss3","sentence","","","",""
"1550.0000000000582","","","survey-likert-extra-labels","50","275331","0.0-21.0-1.0-0.0","37247","1B","conjoined","woman","","","W4 and M2 are kissing each other","kiss3","rating_causation","{""Q0"":4}","[0]","M2 asked to kiss W4","W4 asked to kiss M2"
"1972","","","survey-likert-extra-labels","51","277305","0.0-21.0-2.0","37247","1B","conjoined","woman","","","W4 and M2 are kissing each other","kiss3","rating_volition","{""Q0"":2}","[0]","M2 wanted to kiss W4","W4 wanted to kiss M2"
"null","Dave and Fred are arguing with each other","","html-keyboard-response","52","279308","0.0-22.0-0.0","37247","1B","conjoined","woman","","null","M3 and M1 are arguing with each other","argue2","sentence","","","",""
"2203","","","survey-likert-extra-labels","53","281512","0.0-22.0-2.0","37247","1B","conjoined","woman","","","M3 and M1 are arguing with each other","argue2","rating_volition","{""Q0"":0}","[0]","M1 wanted to argue with M3","M3 wanted to argue with M1"
"4522","","","survey-likert-extra-labels","54","286036","0.0-22.0-3.0-0.0","37247","1B","conjoined","woman","","","M3 and M1 are arguing with each other","argue2","rating_causation","{""Q0"":0}","[0]","M1 started an argument with M3","M3 started an argument with M1"
"null","Luke and Mike are playing with each other","","html-keyboard-response","55","288039","0.0-23.0-0.0","37247","1B","conjoined","woman","","null","M2 and M4 are playing with each other","play2","sentence","","","",""
"1377.9999999999418","","","survey-likert-extra-labels","56","289418","0.0-23.0-1.0-0.0","37247","1B","conjoined","woman","","","M2 and M4 are playing with each other","play2","rating_causation","{""Q0"":3}","[0]","M2 asked to play with M4","M4 asked to play with M2"
"1492","","","survey-likert-extra-labels","57","290911","0.0-23.0-2.0","37247","1B","conjoined","woman","","","M2 and M4 are playing with each other","play2","rating_volition","{""Q0"":3}","[0]","M2 wanted to play with M4","M4 wanted to play with M2"
"null","Beth and Kate are arguing with each other","","html-keyboard-response","58","292913","0.0-24.0-0.0","37247","1B","conjoined","woman","","null","W3 and W1 are arguing with each other","argue1","sentence","","","",""
"90702.99999999994","","","survey-likert-extra-labels","59","383615","0.0-24.0-2.0","37247","1B","conjoined","woman","","","W3 and W1 are arguing with each other","argue1","rating_volition","{""Q0"":3}","[0]","W1 wanted to argue with W3","W3 wanted to argue with W1"
"1764","","","survey-likert-extra-labels","60","385381","0.0-24.0-3.0-0.0","37247","1B","conjoined","woman","","","W3 and W1 are arguing with each other","argue1","rating_causation","{""Q0"":3}","[0]","W1 started an argument with W3","W3 started an argument with W1"
"null","Luke and Mike are flirting with each other","","html-keyboard-response","61","387384","0.0-25.0-0.0","37247","1B","conjoined","woman","","null","M2 and M4 are flirting with each other","flirt2","sentence","","","",""
"4032","","","survey-likert-extra-labels","62","391417","0.0-25.0-1.0-0.0","37247","1B","conjoined","woman","","","M2 and M4 are flirting with each other","flirt2","rating_causation","{""Q0"":2}","[0]","M2 started flirting with M4 first","M4 started flirting with M2 first"
"3023","","","survey-likert-extra-labels","63","394442","0.0-25.0-2.0","37247","1B","conjoined","woman","","","M2 and M4 are flirting with each other","flirt2","rating_volition","{""Q0"":2}","[0]","M2 wanted to flirt with M4","M4 wanted to flirt with M2"
"null","Kate and Dave are fighting each other","","html-keyboard-response","64","396444","0.0-26.0-0.0","37247","1B","conjoined","woman","","null","W1 and M3 are fighting each other","fight4","sentence","","","",""
"1898","","","survey-likert-extra-labels","65","398344","0.0-26.0-1.0-0.0","37247","1B","conjoined","woman","","","W1 and M3 are fighting each other","fight4","rating_causation","{""Q0"":1}","[0]","M3 started the fight with W1","W1 started the fight with M3"
"1752","","","survey-likert-extra-labels","66","400098","0.0-26.0-2.0","37247","1B","conjoined","woman","","","W1 and M3 are fighting each other","fight4","rating_volition","{""Q0"":1}","[0]","M3 wanted to fight W1","W1 wanted to fight M3"
"null","Kate and Beth are talking to each other","","html-keyboard-response","67","402100","0.0-27.0-0.0","37247","1B","conjoined","woman","","null","W1 and W3 are talking to each other","talk1","sentence","","","",""
"2093.999999999942","","","survey-likert-extra-labels","68","404196","0.0-27.0-2.0","37247","1B","conjoined","woman","","","W1 and W3 are talking to each other","talk1","rating_volition","{""Q0"":1}","[0]","W1 wanted to talk to W3","W3 wanted to talk to W1"
"1625.9999999999418","","","survey-likert-extra-labels","69","405823","0.0-27.0-3.0-0.0","37247","1B","conjoined","woman","","","W1 and W3 are talking to each other","talk1","rating_causation","{""Q0"":1}","[0]","W1 started a conversation with W3","W3 started a conversation with W1"
"null","Fred and Dave are talking to each other","","html-keyboard-response","70","407825","0.0-28.0-0.0","37247","1B","conjoined","woman","","null","M1 and M3 are talking to each other","talk2","sentence","","","",""
"1795","","","survey-likert-extra-labels","71","409622","0.0-28.0-2.0","37247","1B","conjoined","woman","","","M1 and M3 are talking to each other","talk2","rating_volition","{""Q0"":0}","[0]","M1 wanted to talk to M3","M3 wanted to talk to M1"
"1976","","","survey-likert-extra-labels","72","411599","0.0-28.0-3.0-0.0","37247","1B","conjoined","woman","","","M1 and M3 are talking to each other","talk2","rating_causation","{""Q0"":0}","[0]","M1 started a conversation with M3","M3 started a conversation with M1"
"null","Dave and Fred are kissing each other","","html-keyboard-response","73","413602","0.0-29.0-0.0","37247","1B","conjoined","woman","","null","M3 and M1 are kissing each other","kiss2","sentence","","","",""
"1884","","","survey-likert-extra-labels","74","415487","0.0-29.0-1.0-0.0","37247","1B","conjoined","woman","","","M3 and M1 are kissing each other","kiss2","rating_causation","{""Q0"":0}","[0]","M1 asked to kiss M3","M3 asked to kiss M1"
"2892","","","survey-likert-extra-labels","75","418381","0.0-29.0-2.0","37247","1B","conjoined","woman","","","M3 and M1 are kissing each other","kiss2","rating_volition","{""Q0"":6}","[0]","M1 wanted to kiss M3","M3 wanted to kiss M1"
"null","Luke and Jane are dancing with each other","","html-keyboard-response","76","420383","0.0-30.0-0.0","37247","1B","conjoined","woman","","null","M2 and W4 are dancing with each other","dance4","sentence","","","",""
"1509","","","survey-likert-extra-labels","77","421894","0.0-30.0-2.0","37247","1B","conjoined","woman","","","M2 and W4 are dancing with each other","dance4","rating_volition","{""Q0"":3}","[0]","M2 wanted to dance with W4","W4 wanted to dance with M2"
"1357","","","survey-likert-extra-labels","78","423253","0.0-30.0-3.0-0.0","37247","1B","conjoined","woman","","","M2 and W4 are dancing with each other","dance4","rating_causation","{""Q0"":3}","[0]","M2 asked W4 to dance","W4 asked M2 to dance"
"null","Luke and Mike are touching each other","","html-keyboard-response","79","425256","0.0-31.0-0.0","37247","1B","conjoined","woman","","null","M2 and M4 are touching each other","touch2","sentence","","","",""
"2296.999999999942","","","survey-likert-extra-labels","80","427554","0.0-31.0-2.0","37247","1B","conjoined","woman","","","M2 and M4 are touching each other","touch2","rating_volition","{""Q0"":3}","[0]","M2 wanted to touch M4","M4 wanted to touch M2"
"1936","","","survey-likert-extra-labels","81","429492","0.0-31.0-3.0-0.0","37247","1B","conjoined","woman","","","M2 and M4 are touching each other","touch2","rating_causation","{""Q0"":3}","[0]","M2 asked to touch M4","M4 asked to touch M2"
"null","Mike and Ruth are kissing each other","","html-keyboard-response","82","431494","0.0-32.0-0.0","37247","1B","conjoined","woman","","null","M4 and W2 are kissing each other","kiss4","sentence","","","",""
"2523","","","survey-likert-extra-labels","83","434019","0.0-32.0-2.0","37247","1B","conjoined","woman","","","M4 and W2 are kissing each other","kiss4","rating_volition","{""Q0"":3}","[0]","W2 wanted to kiss M4","M4 wanted to kiss W2"
"1937","","","survey-likert-extra-labels","84","435958","0.0-32.0-3.0-0.0","37247","1B","conjoined","woman","","","M4 and W2 are kissing each other","kiss4","rating_causation","{""Q0"":3}","[0]","W2 asked to kiss M4","M4 asked to kiss W2"
"null","Ruth and Mike are dancing with each other","","html-keyboard-response","85","437961","0.0-33.0-0.0","37247","1B","conjoined","woman","","null","W2 and M4 are dancing with each other","dance3","sentence","","","",""
"1592","","","survey-likert-extra-labels","86","439554","0.0-33.0-2.0","37247","1B","conjoined","woman","","","W2 and M4 are dancing with each other","dance3","rating_volition","{""Q0"":3}","[0]","W2 wanted to dance with M4","M4 wanted to dance with W2"
"2308","","","survey-likert-extra-labels","87","441864","0.0-33.0-3.0-0.0","37247","1B","conjoined","woman","","","W2 and M4 are dancing with each other","dance3","rating_causation","{""Q0"":3}","[0]","W2 asked M4 to dance","M4 asked W2 to dance"
"null","Fred is driving Dave","","html-keyboard-response","88","443867","0.0-34.0-0.0","37247","1B","conjoined","woman","","null","M1 is driving M3","drive","sentence","","","",""
"13765","","","survey-likert-extra-labels","89","457634","0.0-34.0-1.0-0.0","37247","1B","conjoined","woman","","","M1 is driving M3","drive","rating_causation","{""Q0"":3}","[0]","M3 is taking M1 somewhere","M1 is taking M3 somewhere"
"1803","","","survey-likert-extra-labels","90","459439","0.0-34.0-2.0","37247","1B","conjoined","woman","","","M1 is driving M3","drive","rating_volition","{""Q0"":3}","[0]","M3 is M1's passenger","M1 is M3's passenger"
"null","Beth and Kate are kissing each other","","html-keyboard-response","91","461442","0.0-35.0-0.0","37247","1B","conjoined","woman","","null","W3 and W1 are kissing each other","kiss1","sentence","","","",""
"1568","","","survey-likert-extra-labels","92","463012","0.0-35.0-2.0","37247","1B","conjoined","woman","","","W3 and W1 are kissing each other","kiss1","rating_volition","{""Q0"":3}","[0]","W1 wanted to kiss W3","W3 wanted to kiss W1"
"4429","","","survey-likert-extra-labels","93","467443","0.0-35.0-3.0-0.0","37247","1B","conjoined","woman","","","W3 and W1 are kissing each other","kiss1","rating_causation","{""Q0"":0}","[0]","W1 asked to kiss W3","W3 asked to kiss W1"
"null","Ruth and Mike are shouting at each other","","html-keyboard-response","94","469446","0.0-36.0-0.0","37247","1B","conjoined","woman","","null","W2 and M4 are shouting at each other","shout4","sentence","","","",""
"2116.000000000058","","","survey-likert-extra-labels","95","471564","0.0-36.0-2.0","37247","1B","conjoined","woman","","","W2 and M4 are shouting at each other","shout4","rating_volition","{""Q0"":0}","[0]","W2 wanted to shout at M4","M4 wanted to shout at W2"
"2061","","","survey-likert-extra-labels","96","473627","0.0-36.0-3.0-0.0","37247","1B","conjoined","woman","","","W2 and M4 are shouting at each other","shout4","rating_causation","{""Q0"":6}","[0]","W2 shouted at M4 first","M4 shouted at W2 first"
"null","Kate is chasing Beth","","html-keyboard-response","97","475630","0.0-37.0-0.0","37247","1B","conjoined","woman","","null","W1 is chasing W3","chase","sentence","","","",""
"11685","","","survey-likert-extra-labels","98","487316","0.0-37.0-1.0-0.0","37247","1B","conjoined","woman","","","W1 is chasing W3","chase","rating_causation","{""Q0"":3}","[0]","W1 is running away from W3","W3 is running away from W1"
"1571","","","survey-likert-extra-labels","99","488890","0.0-37.0-2.0","37247","1B","conjoined","woman","","","W1 is chasing W3","chase","rating_volition","{""Q0"":3}","[0]","W1 is behind W3","W3 is behind W1"
"null","Fred and Dave are dancing with each other","","html-keyboard-response","100","490892","0.0-38.0-0.0","37247","1B","conjoined","woman","","null","M1 and M3 are dancing with each other","dance2","sentence","","","",""
"1523.0000000000582","","","survey-likert-extra-labels","101","492416","0.0-38.0-2.0","37247","1B","conjoined","woman","","","M1 and M3 are dancing with each other","dance2","rating_volition","{""Q0"":3}","[0]","M1 wanted to dance with M3","M3 wanted to dance with M1"
"1372","","","survey-likert-extra-labels","102","493790","0.0-38.0-3.0-0.0","37247","1B","conjoined","woman","","","M1 and M3 are dancing with each other","dance2","rating_causation","{""Q0"":3}","[0]","M1 asked M3 to dance","M3 asked M1 to dance"
"null","Dave is hiring Kate","","html-keyboard-response","103","495792","0.0-39.0-0.0","37247","1B","conjoined","woman","","null","M3 is hiring W1","hire","sentence","","","",""
"4236","","","survey-likert-extra-labels","104","500030","0.0-39.0-2.0","37247","1B","conjoined","woman","","","M3 is hiring W1","hire","rating_volition","{""Q0"":3}","[0]","M3 is employing W1","W1 is employing M3"
"1378","","","survey-likert-extra-labels","105","501410","0.0-39.0-3.0-0.0","37247","1B","conjoined","woman","","","M3 is hiring W1","hire","rating_causation","{""Q0"":3}","[0]","M3 will work for W1","W1 will work for M3"
"null","Jane and Ruth are marrying each other","","html-keyboard-response","106","503413","0.0-40.0-0.0","37247","1B","conjoined","woman","","null","W4 and W2 are marrying each other","marry1","sentence","","","",""
"2247","","","survey-likert-extra-labels","107","505662","0.0-40.0-2.0","37247","1B","conjoined","woman","","","W4 and W2 are marrying each other","marry1","rating_volition","{""Q0"":3}","[0]","W2 wanted to marry W4","W4 wanted to marry W2"
"2446","","","survey-likert-extra-labels","108","508110","0.0-40.0-3.0-0.0","37247","1B","conjoined","woman","","","W4 and W2 are marrying each other","marry1","rating_causation","{""Q0"":3}","[0]","W2 asked to marry W4","W4 asked to marry W2"
"null","Beth and Fred are playing with each other","","html-keyboard-response","109","510112","0.0-41.0-0.0","37247","1B","conjoined","woman","","null","W3 and M1 are playing with each other","play4","sentence","","","",""
"5325","","","survey-likert-extra-labels","110","515438","0.0-41.0-2.0","37247","1B","conjoined","woman","","","W3 and M1 are playing with each other","play4","rating_volition","{""Q0"":3}","[0]","W3 wanted to play with M1","M1 wanted to play with W3"
"1572","","","survey-likert-extra-labels","111","517012","0.0-41.0-3.0-0.0","37247","1B","conjoined","woman","","","W3 and M1 are playing with each other","play4","rating_causation","{""Q0"":3}","[0]","W3 asked to play with M1","M1 asked to play with W3"
"null","Ruth is teaching Mike","","html-keyboard-response","112","519015","0.0-42.0-0.0","37247","1B","conjoined","woman","","null","W2 is teaching M4","teach","sentence","","","",""
"3213.000000000058","","","survey-likert-extra-labels","113","522229","0.0-42.0-2.0","37247","1B","conjoined","woman","","","W2 is teaching M4","teach","rating_volition","{""Q0"":0}","[0]","W2 is educating M4","M4 is educating W2"
"2808","","","survey-likert-extra-labels","114","525039","0.0-42.0-3.0-0.0","37247","1B","conjoined","woman","","","W2 is teaching M4","teach","rating_causation","{""Q0"":6}","[0]","W2 is learning from M4","M4 is learning from W2"
"null","Dave and Kate are playing with each other","","html-keyboard-response","115","527041","0.0-43.0-0.0","37247","1B","conjoined","woman","","null","M3 and W1 are playing with each other","play3","sentence","","","",""
"1553","","","survey-likert-extra-labels","116","528595","0.0-43.0-2.0","37247","1B","conjoined","woman","","","M3 and W1 are playing with each other","play3","rating_volition","{""Q0"":3}","[0]","M3 wanted to play with W1","W1 wanted to play with M3"
"1926","","","survey-likert-extra-labels","117","530523","0.0-43.0-3.0-0.0","37247","1B","conjoined","woman","","","M3 and W1 are playing with each other","play3","rating_causation","{""Q0"":3}","[0]","M3 asked to play with W1","W1 asked to play with M3"
"null","Beth and Fred are touching each other","","html-keyboard-response","118","532525","0.0-44.0-0.0","37247","1B","conjoined","woman","","null","W3 and M1 are touching each other","touch3","sentence","","","",""
"3684.9999999998836","","","survey-likert-extra-labels","119","536212","0.0-44.0-2.0","37247","1B","conjoined","woman","","","W3 and M1 are touching each other","touch3","rating_volition","{""Q0"":2}","[0]","W3 wanted to touch M1","M1 wanted to touch W3"
"2060","","","survey-likert-extra-labels","120","538274","0.0-44.0-3.0-0.0","37247","1B","conjoined","woman","","","W3 and M1 are touching each other","touch3","rating_causation","{""Q0"":2}","[0]","W3 asked to touch M1","M1 asked to touch W3"
"null","Beth is feeding Fred","","html-keyboard-response","121","540275","0.0-45.0-0.0","37247","1B","conjoined","woman","","null","W3 is feeding M1","feed","sentence","","","",""
"7025.999999999884","","","survey-likert-extra-labels","122","547303","0.0-45.0-1.0-0.0","37247","1B","conjoined","woman","","","W3 is feeding M1","feed","rating_causation","{""Q0"":6}","[0]","W3 is eating M1's food","M1 is eating W3's food"
"15015.000000000116","","","survey-likert-extra-labels","123","562319","0.0-45.0-2.0","37247","1B","conjoined","woman","","","W3 is feeding M1","feed","rating_volition","{""Q0"":0}","[0]","W3 is giving M1 food","M1 is giving W3 food"
"null","Beth and Fred are flirting with each other","","html-keyboard-response","124","564322","0.0-46.0-0.0","37247","1B","conjoined","woman","","null","W3 and M1 are flirting with each other","flirt3","sentence","","","",""
"51561","","","survey-likert-extra-labels","125","615883","0.0-46.0-1.0-0.0","37247","1B","conjoined","woman","","","W3 and M1 are flirting with each other","flirt3","rating_causation","{""Q0"":3}","[0]","W3 started flirting with M1 first","M1 started flirting with W3 first"
"73115","","","survey-likert-extra-labels","126","688998","0.0-46.0-2.0","37247","1B","conjoined","woman","","","W3 and M1 are flirting with each other","flirt3","rating_volition","{""Q0"":3}","[0]","W3 wanted to flirt with M1","M1 wanted to flirt with W3"
"null","Fred and Dave are shouting at each other","","html-keyboard-response","127","691000","0.0-47.0-0.0","37247","1B","conjoined","woman","","null","M1 and M3 are shouting at each other","shout2","sentence","","","",""
"1900","","","survey-likert-extra-labels","128","692902","0.0-47.0-1.0-0.0","37247","1B","conjoined","woman","","","M1 and M3 are shouting at each other","shout2","rating_causation","{""Q0"":0}","[0]","M1 shouted at M3 first","M3 shouted at M1 first"
"2294","","","survey-likert-extra-labels","129","695197","0.0-47.0-2.0","37247","1B","conjoined","woman","","","M1 and M3 are shouting at each other","shout2","rating_volition","{""Q0"":6}","[0]","M1 wanted to shout at M3","M3 wanted to shout at M1"
"null","Ruth and Jane are flirting with each other","","html-keyboard-response","130","697199","0.0-48.0-0.0","37247","1B","conjoined","woman","","null","W2 and W4 are flirting with each other","flirt1","sentence","","","",""
"1755","","","survey-likert-extra-labels","131","698956","0.0-48.0-1.0-0.0","37247","1B","conjoined","woman","","","W2 and W4 are flirting with each other","flirt1","rating_causation","{""Q0"":0}","[0]","W2 started flirting with W4 first","W4 started flirting with W2 first"
"2820","","","survey-likert-extra-labels","132","701779","0.0-48.0-2.0","37247","1B","conjoined","woman","","","W2 and W4 are flirting with each other","flirt1","rating_volition","{""Q0"":6}","[0]","W2 wanted to flirt with W4","W4 wanted to flirt with W2"
"null","Luke and Jane are shouting at each other","","html-keyboard-response","133","703781","0.0-49.0-0.0","37247","1B","conjoined","woman","","null","M2 and W4 are shouting at each other","shout3","sentence","","","",""
"1896","","","survey-likert-extra-labels","134","705679","0.0-49.0-2.0","37247","1B","conjoined","woman","","","M2 and W4 are shouting at each other","shout3","rating_volition","{""Q0"":0}","[0]","M2 wanted to shout at W4","W4 wanted to shout at M2"
"2709","","","survey-likert-extra-labels","135","708390","0.0-49.0-3.0-0.0","37247","1B","conjoined","woman","","","M2 and W4 are shouting at each other","shout3","rating_causation","{""Q0"":6}","[0]","M2 shouted at W4 first","W4 shouted at M2 first"
"null","Fred and Beth are fighting each other","","html-keyboard-response","136","710392","0.0-50.0-0.0","37247","1B","conjoined","woman","","null","M1 and W3 are fighting each other","fight3","sentence","","","",""
"1673","","","survey-likert-extra-labels","137","712068","0.0-50.0-1.0-0.0","37247","1B","conjoined","woman","","","M1 and W3 are fighting each other","fight3","rating_causation","{""Q0"":4}","[0]","W3 started the fight with M1","M1 started the fight with W3"
"4954.999999999884","","","survey-likert-extra-labels","138","717025","0.0-50.0-2.0","37247","1B","conjoined","woman","","","M1 and W3 are fighting each other","fight3","rating_volition","{""Q0"":3}","[0]","W3 wanted to fight M1","M1 wanted to fight W3"
"null","Jane and Ruth are fighting each other","","html-keyboard-response","139","719027","0.0-51.0-0.0","37247","1B","conjoined","woman","","null","W4 and W2 are fighting each other","fight1","sentence","","","",""
"1869","","","survey-likert-extra-labels","140","720897","0.0-51.0-1.0-0.0","37247","1B","conjoined","woman","","","W4 and W2 are fighting each other","fight1","rating_causation","{""Q0"":4}","[0]","W2 started the fight with W4","W4 started the fight with W2"
"1865","","","survey-likert-extra-labels","141","722765","0.0-51.0-2.0","37247","1B","conjoined","woman","","","W4 and W2 are fighting each other","fight1","rating_volition","{""Q0"":2}","[0]","W2 wanted to fight W4","W4 wanted to fight W2"
"null","Kate and Beth are shouting at each other","","html-keyboard-response","142","724767","0.0-52.0-0.0","37247","1B","conjoined","woman","","null","W1 and W3 are shouting at each other","shout1","sentence","","","",""
"3677","","","survey-likert-extra-labels","143","728445","0.0-52.0-1.0-0.0","37247","1B","conjoined","woman","","","W1 and W3 are shouting at each other","shout1","rating_causation","{""Q0"":4}","[0]","W1 shouted at W3 first","W3 shouted at W1 first"
"1723.0000000001164","","","survey-likert-extra-labels","144","730171","0.0-52.0-2.0","37247","1B","conjoined","woman","","","W1 and W3 are shouting at each other","shout1","rating_volition","{""Q0"":2}","[0]","W1 wanted to shout at W3","W3 wanted to shout at W1"
"null","Mike and Luke are marrying each other","","html-keyboard-response","145","732174","0.0-53.0-0.0","37247","1B","conjoined","woman","","null","M4 and M2 are marrying each other","marry2","sentence","","","",""
"2589","","","survey-likert-extra-labels","146","734764","0.0-53.0-1.0-0.0","37247","1B","conjoined","woman","","","M4 and M2 are marrying each other","marry2","rating_causation","{""Q0"":5}","[0]","M2 asked to marry M4","M4 asked to marry M2"
"2255","","","survey-likert-extra-labels","147","737021","0.0-53.0-2.0","37247","1B","conjoined","woman","","","M4 and M2 are marrying each other","marry2","rating_volition","{""Q0"":1}","[0]","M2 wanted to marry M4","M4 wanted to marry M2"
"null","Dave and Kate are flirting with each other","","html-keyboard-response","148","739023","0.0-54.0-0.0","37247","1B","conjoined","woman","","null","M3 and W1 are flirting with each other","flirt4","sentence","","","",""
"1582","","","survey-likert-extra-labels","149","740607","0.0-54.0-2.0","37247","1B","conjoined","woman","","","M3 and W1 are flirting with each other","flirt4","rating_volition","{""Q0"":2}","[0]","M3 wanted to flirt with W1","W1 wanted to flirt with M3"
"2025","","","survey-likert-extra-labels","150","742634","0.0-54.0-3.0-0.0","37247","1B","conjoined","woman","","","M3 and W1 are flirting with each other","flirt4","rating_causation","{""Q0"":3}","[0]","M3 started flirting with W1 first","W1 started flirting with M3 first"
"51324","<p>Thank you for completing that task.</p><p>The final part of this session is a short questionnaire.</p><p>Press Continue.</p>","0","html-button-response","151","793957","0.0-55.0","37247","1B","conjoined","woman","","","","","","","","",""
"13728","","","survey-text","152","808713","0.0-56.0","37247","1B","conjoined","woman","","","","","demographics","{""Q0"":""29"",""Q1"":""english"",""Q2"":""english"",""Q3"":""england"",""Q4"":""english"",""Q5"":""white"",""Q6"":""female""}","","",""
"1589","<p>Have you lived in the UK for the last 5 years or more?</p>","0","html-button-response","153","810303","0.0-57.0","37247","1B","conjoined","woman","","","","","fiveyears","","","",""
"6452.999999999884","","","survey-text","154","817764","0.0-58.0","37247","1B","conjoined","woman","","","","","worker_id","{""Q0"":""5f52b0b2834c3f06a47824e7""}","","",""
"2379.0000000001164","","","external-html","155","820235","0.0-59.0","37247","1B","conjoined","woman","debrief.html","","","","","","","",""
