"rt","stimulus","button_pressed","trial_type","trial_index","time_elapsed","internal_node_id","subject","list","condition","ppt_gender","url","key_press","sentence_type","verb","test_part","responses","question_order","left_part","right_part"
"5806","Welcome to the experiment. Press Continue to begin.","0","html-button-response","0","5817","0.0-0.0","37336","1B","conjoined","man","","","","","","","","",""
"39788","","","external-html","1","46697","0.0-1.0","37336","1B","conjoined","man","consent.html","","","","","","","",""
"18021","<p>Welcome.</p><p>In this experiment we will ask you to imagine some situations.</p><p>Each trial starts with a description of an event.</p><p>Then you will see alternative descriptions of that event, and you will rate on a scale how best they match the original description.</p><p>You will give your answer by clicking a button on a rating scale.</p><p>To do this task, you will have to use your imagination to visualise these events.</p><br><p>Ready?</p>","0","html-button-response","2","64721","0.0-2.0","37336","1B","conjoined","man","","","","","","","","",""
"7297","<p>Before the experiment starts, you will watch an example trial. Press 'Continue'.</p>","0","html-button-response","3","73021","0.0-3.0","37336","1B","conjoined","man","","","","","","","","",""
"null","The police officer is arresting the robber","","html-keyboard-response","4","76027","0.0-4.0","37336","1B","conjoined","man","","null","","","","","","",""
"22381","<img src='img/Example-trial.jpg' style='height:550px;''></img>","0","html-button-response","5","98409","0.0-5.0","37336","1B","conjoined","man","","","","","","","","",""
"4102","<p>Ready to start the experiment?</p><br><p><strong>Remember to give an answer by clicking a button on the rating scale.</strong></p><p>Press 'Continue' to begin.</p>","0","html-button-response","6","103514","0.0-6.0","37336","1B","conjoined","man","","","","","","","","",""
"null","Dave and Fred are kissing each other","","html-keyboard-response","7","106519","0.0-7.0-0.0","37336","1B","conjoined","man","","null","M3 and M1 are kissing each other","kiss2","sentence","","","",""
"58815","","","survey-likert-extra-labels","8","165343","0.0-7.0-1.0-0.0","37336","1B","conjoined","man","","","M3 and M1 are kissing each other","kiss2","rating_causation","{""Q0"":5}","[0]","M1 asked to kiss M3","M3 asked to kiss M1"
"27236.00000000003","","","survey-likert-extra-labels","9","192581","0.0-7.0-2.0","37336","1B","conjoined","man","","","M3 and M1 are kissing each other","kiss2","rating_volition","{""Q0"":5}","[0]","M1 wanted to kiss M3","M3 wanted to kiss M1"
"null","Ruth and Jane are playing with each other","","html-keyboard-response","10","194586","0.0-8.0-0.0","37336","1B","conjoined","man","","null","W2 and W4 are playing with each other","play1","sentence","","","",""
"19209","","","survey-likert-extra-labels","11","213800","0.0-8.0-1.0-0.0","37336","1B","conjoined","man","","","W2 and W4 are playing with each other","play1","rating_causation","{""Q0"":1}","[0]","W2 asked to play with W4","W4 asked to play with W2"
"24296","","","survey-likert-extra-labels","12","238118","0.0-8.0-2.0","37336","1B","conjoined","man","","","W2 and W4 are playing with each other","play1","rating_volition","{""Q0"":3}","[0]","W2 wanted to play with W4","W4 wanted to play with W2"
"null","Ruth and Jane are touching each other","","html-keyboard-response","13","240125","0.0-9.0-0.0","37336","1B","conjoined","man","","null","W2 and W4 are touching each other","touch1","sentence","","","",""
"31942.99999999997","","","survey-likert-extra-labels","14","272079","0.0-9.0-2.0","37336","1B","conjoined","man","","","W2 and W4 are touching each other","touch1","rating_volition","{""Q0"":2}","[0]","W2 wanted to touch W4","W4 wanted to touch W2"
"14407","","","survey-likert-extra-labels","15","286491","0.0-9.0-3.0-0.0","37336","1B","conjoined","man","","","W2 and W4 are touching each other","touch1","rating_causation","{""Q0"":3}","[0]","W2 asked to touch W4","W4 asked to touch W2"
"null","Dave and Kate are playing with each other","","html-keyboard-response","16","288496","0.0-10.0-0.0","37336","1B","conjoined","man","","null","M3 and W1 are playing with each other","play3","sentence","","","",""
"27158","","","survey-likert-extra-labels","17","315658","0.0-10.0-2.0","37336","1B","conjoined","man","","","M3 and W1 are playing with each other","play3","rating_volition","{""Q0"":3}","[0]","M3 wanted to play with W1","W1 wanted to play with M3"
"10218","","","survey-likert-extra-labels","18","325881","0.0-10.0-3.0-0.0","37336","1B","conjoined","man","","","M3 and W1 are playing with each other","play3","rating_causation","{""Q0"":3}","[0]","M3 asked to play with W1","W1 asked to play with M3"
"null","Dave and Kate are touching each other","","html-keyboard-response","19","327886","0.0-11.0-0.0","37336","1B","conjoined","man","","null","M3 and W1 are touching each other","touch4","sentence","","","",""
"26043","","","survey-likert-extra-labels","20","353935","0.0-11.0-2.0","37336","1B","conjoined","man","","","M3 and W1 are touching each other","touch4","rating_volition","{""Q0"":3}","[0]","M3 wanted to touch W1","W1 wanted to touch M3"
"24193","","","survey-likert-extra-labels","21","378131","0.0-11.0-3.0-0.0","37336","1B","conjoined","man","","","M3 and W1 are touching each other","touch4","rating_causation","{""Q0"":2}","[0]","M3 asked to touch W1","W1 asked to touch M3"
"null","Kate and Beth are dancing with each other","","html-keyboard-response","22","380135","0.0-12.0-0.0","37336","1B","conjoined","man","","null","W1 and W3 are dancing with each other","dance1","sentence","","","",""
"15657","","","survey-likert-extra-labels","23","395797","0.0-12.0-2.0","37336","1B","conjoined","man","","","W1 and W3 are dancing with each other","dance1","rating_volition","{""Q0"":2}","[0]","W1 wanted to dance with W3","W3 wanted to dance with W1"
"17994","","","survey-likert-extra-labels","24","413796","0.0-12.0-3.0-0.0","37336","1B","conjoined","man","","","W1 and W3 are dancing with each other","dance1","rating_causation","{""Q0"":2}","[0]","W1 asked W3 to dance","W3 asked W1 to dance"
"null","Luke and Jane are dancing with each other","","html-keyboard-response","25","415803","0.0-13.0-0.0","37336","1B","conjoined","man","","null","M2 and W4 are dancing with each other","dance4","sentence","","","",""
"10000","","","survey-likert-extra-labels","26","425807","0.0-13.0-2.0","37336","1B","conjoined","man","","","M2 and W4 are dancing with each other","dance4","rating_volition","{""Q0"":2}","[0]","M2 wanted to dance with W4","W4 wanted to dance with M2"
"14168","","","survey-likert-extra-labels","27","439980","0.0-13.0-3.0-0.0","37336","1B","conjoined","man","","","M2 and W4 are dancing with each other","dance4","rating_causation","{""Q0"":2}","[0]","M2 asked W4 to dance","W4 asked M2 to dance"
"null","Luke and Mike are flirting with each other","","html-keyboard-response","28","441984","0.0-14.0-0.0","37336","1B","conjoined","man","","null","M2 and M4 are flirting with each other","flirt2","sentence","","","",""
"13277","","","survey-likert-extra-labels","29","455267","0.0-14.0-2.0","37336","1B","conjoined","man","","","M2 and M4 are flirting with each other","flirt2","rating_volition","{""Q0"":2}","[0]","M2 wanted to flirt with M4","M4 wanted to flirt with M2"
"23515.00000000006","","","survey-likert-extra-labels","30","478788","0.0-14.0-3.0-0.0","37336","1B","conjoined","man","","","M2 and M4 are flirting with each other","flirt2","rating_causation","{""Q0"":1}","[0]","M2 started flirting with M4 first","M4 started flirting with M2 first"
"null","Luke is reminding Jane","","html-keyboard-response","31","480793","0.0-15.0-0.0","37336","1B","conjoined","man","","null","M2 is reminding W4","remind","sentence","","","",""
"24885","","","survey-likert-extra-labels","32","505683","0.0-15.0-1.0-0.0","37336","1B","conjoined","man","","","M2 is reminding W4","remind","rating_causation","{""Q0"":2}","[0]","M2 is remembering","W4 is remembering"
"19846","","","survey-likert-extra-labels","33","525534","0.0-15.0-2.0","37336","1B","conjoined","man","","","M2 is reminding W4","remind","rating_volition","{""Q0"":2}","[0]","M2 is telling W4 again","W4 is telling M2 again"
"null","Fred and Dave are shouting at each other","","html-keyboard-response","34","527538","0.0-16.0-0.0","37336","1B","conjoined","man","","null","M1 and M3 are shouting at each other","shout2","sentence","","","",""
"13049","","","survey-likert-extra-labels","35","540592","0.0-16.0-1.0-0.0","37336","1B","conjoined","man","","","M1 and M3 are shouting at each other","shout2","rating_causation","{""Q0"":1}","[0]","M1 shouted at M3 first","M3 shouted at M1 first"
"16628","","","survey-likert-extra-labels","36","557225","0.0-16.0-2.0","37336","1B","conjoined","man","","","M1 and M3 are shouting at each other","shout2","rating_volition","{""Q0"":2}","[0]","M1 wanted to shout at M3","M3 wanted to shout at M1"
"null","Ruth and Jane are flirting with each other","","html-keyboard-response","37","559230","0.0-17.0-0.0","37336","1B","conjoined","man","","null","W2 and W4 are flirting with each other","flirt1","sentence","","","",""
"9220","","","survey-likert-extra-labels","38","568456","0.0-17.0-2.0","37336","1B","conjoined","man","","","W2 and W4 are flirting with each other","flirt1","rating_volition","{""Q0"":2}","[0]","W2 wanted to flirt with W4","W4 wanted to flirt with W2"
"15143","","","survey-likert-extra-labels","39","583604","0.0-17.0-3.0-0.0","37336","1B","conjoined","man","","","W2 and W4 are flirting with each other","flirt1","rating_causation","{""Q0"":1}","[0]","W2 started flirting with W4 first","W4 started flirting with W2 first"
"null","Luke and Mike are touching each other","","html-keyboard-response","40","585608","0.0-18.0-0.0","37336","1B","conjoined","man","","null","M2 and M4 are touching each other","touch2","sentence","","","",""
"14853.999999999884","","","survey-likert-extra-labels","41","600466","0.0-18.0-2.0","37336","1B","conjoined","man","","","M2 and M4 are touching each other","touch2","rating_volition","{""Q0"":1}","[0]","M2 wanted to touch M4","M4 wanted to touch M2"
"8164","","","survey-likert-extra-labels","42","608634","0.0-18.0-3.0-0.0","37336","1B","conjoined","man","","","M2 and M4 are touching each other","touch2","rating_causation","{""Q0"":1}","[0]","M2 asked to touch M4","M4 asked to touch M2"
"null","Jane and Luke are arguing with each other","","html-keyboard-response","43","610638","0.0-19.0-0.0","37336","1B","conjoined","man","","null","W4 and M2 are arguing with each other","argue4","sentence","","","",""
"8278","","","survey-likert-extra-labels","44","618921","0.0-19.0-2.0","37336","1B","conjoined","man","","","W4 and M2 are arguing with each other","argue4","rating_volition","{""Q0"":5}","[0]","M2 wanted to argue with W4","W4 wanted to argue with M2"
"11200","","","survey-likert-extra-labels","45","630125","0.0-19.0-3.0-0.0","37336","1B","conjoined","man","","","W4 and M2 are arguing with each other","argue4","rating_causation","{""Q0"":4}","[0]","M2 started an argument with W4","W4 started an argument with M2"
"null","Beth is feeding Fred","","html-keyboard-response","46","632130","0.0-20.0-0.0","37336","1B","conjoined","man","","null","W3 is feeding M1","feed","sentence","","","",""
"14819","","","survey-likert-extra-labels","47","646954","0.0-20.0-2.0","37336","1B","conjoined","man","","","W3 is feeding M1","feed","rating_volition","{""Q0"":0}","[0]","W3 is giving M1 food","M1 is giving W3 food"
"27372","","","survey-likert-extra-labels","48","674330","0.0-20.0-3.0-0.0","37336","1B","conjoined","man","","","W3 is feeding M1","feed","rating_causation","{""Q0"":6}","[0]","W3 is eating M1's food","M1 is eating W3's food"
"null","Jane and Ruth are fighting each other","","html-keyboard-response","49","676333","0.0-21.0-0.0","37336","1B","conjoined","man","","null","W4 and W2 are fighting each other","fight1","sentence","","","",""
"9502","","","survey-likert-extra-labels","50","685839","0.0-21.0-2.0","37336","1B","conjoined","man","","","W4 and W2 are fighting each other","fight1","rating_volition","{""Q0"":5}","[0]","W2 wanted to fight W4","W4 wanted to fight W2"
"8704","","","survey-likert-extra-labels","51","694549","0.0-21.0-3.0-0.0","37336","1B","conjoined","man","","","W4 and W2 are fighting each other","fight1","rating_causation","{""Q0"":5}","[0]","W2 started the fight with W4","W4 started the fight with W2"
"null","Fred and Dave are talking to each other","","html-keyboard-response","52","696553","0.0-22.0-0.0","37336","1B","conjoined","man","","null","M1 and M3 are talking to each other","talk2","sentence","","","",""
"7871","","","survey-likert-extra-labels","53","704428","0.0-22.0-1.0-0.0","37336","1B","conjoined","man","","","M1 and M3 are talking to each other","talk2","rating_causation","{""Q0"":1}","[0]","M1 started a conversation with M3","M3 started a conversation with M1"
"107986","","","survey-likert-extra-labels","54","812417","0.0-22.0-2.0","37336","1B","conjoined","man","","","M1 and M3 are talking to each other","talk2","rating_volition","{""Q0"":1}","[0]","M1 wanted to talk to M3","M3 wanted to talk to M1"
"null","Fred and Dave are dancing with each other","","html-keyboard-response","55","814419","0.0-23.0-0.0","37336","1B","conjoined","man","","null","M1 and M3 are dancing with each other","dance2","sentence","","","",""
"15448.000000000116","","","survey-likert-extra-labels","56","829875","0.0-23.0-1.0-0.0","37336","1B","conjoined","man","","","M1 and M3 are dancing with each other","dance2","rating_causation","{""Q0"":1}","[0]","M1 asked M3 to dance","M3 asked M1 to dance"
"14868","","","survey-likert-extra-labels","57","844748","0.0-23.0-2.0","37336","1B","conjoined","man","","","M1 and M3 are dancing with each other","dance2","rating_volition","{""Q0"":1}","[0]","M1 wanted to dance with M3","M3 wanted to dance with M1"
"null","Luke is posing for Mike","","html-keyboard-response","58","846753","0.0-24.0-0.0","37336","1B","conjoined","man","","null","M2 is posing for M4","pose","sentence","","","",""
"17130","","","survey-likert-extra-labels","59","863887","0.0-24.0-2.0","37336","1B","conjoined","man","","","M2 is posing for M4","pose","rating_volition","{""Q0"":0}","[0]","M2 is modelling for M4","M4 is modelling for M2"
"17083.000000000116","","","survey-likert-extra-labels","60","880975","0.0-24.0-3.0-0.0","37336","1B","conjoined","man","","","M2 is posing for M4","pose","rating_causation","{""Q0"":0}","[0]","M2 is photographing M4","M4 is photographing M2"
"null","Jane and Luke are kissing each other","","html-keyboard-response","61","882978","0.0-25.0-0.0","37336","1B","conjoined","man","","null","W4 and M2 are kissing each other","kiss3","sentence","","","",""
"14502.000000000116","","","survey-likert-extra-labels","62","897487","0.0-25.0-1.0-0.0","37336","1B","conjoined","man","","","W4 and M2 are kissing each other","kiss3","rating_causation","{""Q0"":3}","[0]","M2 asked to kiss W4","W4 asked to kiss M2"
"14187","","","survey-likert-extra-labels","63","911679","0.0-25.0-2.0","37336","1B","conjoined","man","","","W4 and M2 are kissing each other","kiss3","rating_volition","{""Q0"":3}","[0]","M2 wanted to kiss W4","W4 wanted to kiss M2"
"null","Kate and Dave are fighting each other","","html-keyboard-response","64","913682","0.0-26.0-0.0","37336","1B","conjoined","man","","null","W1 and M3 are fighting each other","fight4","sentence","","","",""
"20395","","","survey-likert-extra-labels","65","934081","0.0-26.0-2.0","37336","1B","conjoined","man","","","W1 and M3 are fighting each other","fight4","rating_volition","{""Q0"":3}","[0]","M3 wanted to fight W1","W1 wanted to fight M3"
"11571","","","survey-likert-extra-labels","66","945659","0.0-26.0-3.0-0.0","37336","1B","conjoined","man","","","W1 and M3 are fighting each other","fight4","rating_causation","{""Q0"":3}","[0]","M3 started the fight with W1","W1 started the fight with M3"
"null","Beth and Kate are kissing each other","","html-keyboard-response","67","947662","0.0-27.0-0.0","37336","1B","conjoined","man","","null","W3 and W1 are kissing each other","kiss1","sentence","","","",""
"11768.000000000116","","","survey-likert-extra-labels","68","959434","0.0-27.0-1.0-0.0","37336","1B","conjoined","man","","","W3 and W1 are kissing each other","kiss1","rating_causation","{""Q0"":3}","[0]","W1 asked to kiss W3","W3 asked to kiss W1"
"22100","","","survey-likert-extra-labels","69","981539","0.0-27.0-2.0","37336","1B","conjoined","man","","","W3 and W1 are kissing each other","kiss1","rating_volition","{""Q0"":3}","[0]","W1 wanted to kiss W3","W3 wanted to kiss W1"
"null","Mike and Ruth are kissing each other","","html-keyboard-response","70","983543","0.0-28.0-0.0","37336","1B","conjoined","man","","null","M4 and W2 are kissing each other","kiss4","sentence","","","",""
"20154","","","survey-likert-extra-labels","71","1003701","0.0-28.0-1.0-0.0","37336","1B","conjoined","man","","","M4 and W2 are kissing each other","kiss4","rating_causation","{""Q0"":3}","[0]","W2 asked to kiss M4","M4 asked to kiss W2"
"13642.999999999884","","","survey-likert-extra-labels","72","1017350","0.0-28.0-2.0","37336","1B","conjoined","man","","","M4 and W2 are kissing each other","kiss4","rating_volition","{""Q0"":3}","[0]","W2 wanted to kiss M4","M4 wanted to kiss W2"
"null","Fred and Beth are fighting each other","","html-keyboard-response","73","1019355","0.0-29.0-0.0","37336","1B","conjoined","man","","null","M1 and W3 are fighting each other","fight3","sentence","","","",""
"12342.999999999884","","","survey-likert-extra-labels","74","1031703","0.0-29.0-2.0","37336","1B","conjoined","man","","","M1 and W3 are fighting each other","fight3","rating_volition","{""Q0"":5}","[0]","W3 wanted to fight M1","M1 wanted to fight W3"
"8373","","","survey-likert-extra-labels","75","1040083","0.0-29.0-3.0-0.0","37336","1B","conjoined","man","","","M1 and W3 are fighting each other","fight3","rating_causation","{""Q0"":5}","[0]","W3 started the fight with M1","M1 started the fight with W3"
"null","Beth and Fred are touching each other","","html-keyboard-response","76","1042087","0.0-30.0-0.0","37336","1B","conjoined","man","","null","W3 and M1 are touching each other","touch3","sentence","","","",""
"10409.000000000233","","","survey-likert-extra-labels","77","1052502","0.0-30.0-1.0-0.0","37336","1B","conjoined","man","","","W3 and M1 are touching each other","touch3","rating_causation","{""Q0"":3}","[0]","W3 asked to touch M1","M1 asked to touch W3"
"10846","","","survey-likert-extra-labels","78","1063352","0.0-30.0-2.0","37336","1B","conjoined","man","","","W3 and M1 are touching each other","touch3","rating_volition","{""Q0"":4}","[0]","W3 wanted to touch M1","M1 wanted to touch W3"
"null","Jane and Ruth are marrying each other","","html-keyboard-response","79","1065356","0.0-31.0-0.0","37336","1B","conjoined","man","","null","W4 and W2 are marrying each other","marry1","sentence","","","",""
"12477.000000000233","","","survey-likert-extra-labels","80","1077837","0.0-31.0-1.0-0.0","37336","1B","conjoined","man","","","W4 and W2 are marrying each other","marry1","rating_causation","{""Q0"":3}","[0]","W2 asked to marry W4","W4 asked to marry W2"
"12536","","","survey-likert-extra-labels","81","1090377","0.0-31.0-2.0","37336","1B","conjoined","man","","","W4 and W2 are marrying each other","marry1","rating_volition","{""Q0"":3}","[0]","W2 wanted to marry W4","W4 wanted to marry W2"
"null","Dave is hiring Kate","","html-keyboard-response","82","1092382","0.0-32.0-0.0","37336","1B","conjoined","man","","null","M3 is hiring W1","hire","sentence","","","",""
"11842","","","survey-likert-extra-labels","83","1104230","0.0-32.0-2.0","37336","1B","conjoined","man","","","M3 is hiring W1","hire","rating_volition","{""Q0"":0}","[0]","M3 is employing W1","W1 is employing M3"
"8754","","","survey-likert-extra-labels","84","1112988","0.0-32.0-3.0-0.0","37336","1B","conjoined","man","","","M3 is hiring W1","hire","rating_causation","{""Q0"":6}","[0]","M3 will work for W1","W1 will work for M3"
"null","Fred and Beth are marrying each other","","html-keyboard-response","85","1114993","0.0-33.0-0.0","37336","1B","conjoined","man","","null","M1 and W3 are marrying each other","marry4","sentence","","","",""
"8602","","","survey-likert-extra-labels","86","1123598","0.0-33.0-2.0","37336","1B","conjoined","man","","","M1 and W3 are marrying each other","marry4","rating_volition","{""Q0"":3}","[0]","W3 wanted to marry M1","M1 wanted to marry W3"
"8072","","","survey-likert-extra-labels","87","1131674","0.0-33.0-3.0-0.0","37336","1B","conjoined","man","","","M1 and W3 are marrying each other","marry4","rating_causation","{""Q0"":6}","[0]","W3 asked to marry M1","M1 asked to marry W3"
"null","Ruth is teaching Mike","","html-keyboard-response","88","1133678","0.0-34.0-0.0","37336","1B","conjoined","man","","null","W2 is teaching M4","teach","sentence","","","",""
"9329","","","survey-likert-extra-labels","89","1143013","0.0-34.0-2.0","37336","1B","conjoined","man","","","W2 is teaching M4","teach","rating_volition","{""Q0"":0}","[0]","W2 is educating M4","M4 is educating W2"
"14544","","","survey-likert-extra-labels","90","1157563","0.0-34.0-3.0-0.0","37336","1B","conjoined","man","","","W2 is teaching M4","teach","rating_causation","{""Q0"":6}","[0]","W2 is learning from M4","M4 is learning from W2"
"null","Fred is driving Dave","","html-keyboard-response","91","1159567","0.0-35.0-0.0","37336","1B","conjoined","man","","null","M1 is driving M3","drive","sentence","","","",""
"11415","","","survey-likert-extra-labels","92","1170986","0.0-35.0-1.0-0.0","37336","1B","conjoined","man","","","M1 is driving M3","drive","rating_causation","{""Q0"":6}","[0]","M3 is taking M1 somewhere","M1 is taking M3 somewhere"
"11384","","","survey-likert-extra-labels","93","1182374","0.0-35.0-2.0","37336","1B","conjoined","man","","","M1 is driving M3","drive","rating_volition","{""Q0"":0}","[0]","M3 is M1's passenger","M1 is M3's passenger"
"null","Ruth and Mike are dancing with each other","","html-keyboard-response","94","1184378","0.0-36.0-0.0","37336","1B","conjoined","man","","null","W2 and M4 are dancing with each other","dance3","sentence","","","",""
"8878","","","survey-likert-extra-labels","95","1193261","0.0-36.0-1.0-0.0","37336","1B","conjoined","man","","","W2 and M4 are dancing with each other","dance3","rating_causation","{""Q0"":5}","[0]","W2 asked M4 to dance","M4 asked W2 to dance"
"9011","","","survey-likert-extra-labels","96","1202282","0.0-36.0-2.0","37336","1B","conjoined","man","","","W2 and M4 are dancing with each other","dance3","rating_volition","{""Q0"":5}","[0]","W2 wanted to dance with M4","M4 wanted to dance with W2"
"null","Mike and Ruth are arguing with each other","","html-keyboard-response","97","1204286","0.0-37.0-0.0","37336","1B","conjoined","man","","null","M4 and W2 are arguing with each other","argue3","sentence","","","",""
"6611","","","survey-likert-extra-labels","98","1210902","0.0-37.0-1.0-0.0","37336","1B","conjoined","man","","","M4 and W2 are arguing with each other","argue3","rating_causation","{""Q0"":4}","[0]","W2 started an argument with M4","M4 started an argument with W2"
"13002","","","survey-likert-extra-labels","99","1223909","0.0-37.0-2.0","37336","1B","conjoined","man","","","M4 and W2 are arguing with each other","argue3","rating_volition","{""Q0"":3}","[0]","W2 wanted to argue with M4","M4 wanted to argue with W2"
"null","Beth and Fred are flirting with each other","","html-keyboard-response","100","1225913","0.0-38.0-0.0","37336","1B","conjoined","man","","null","W3 and M1 are flirting with each other","flirt3","sentence","","","",""
"12892","","","survey-likert-extra-labels","101","1238810","0.0-38.0-2.0","37336","1B","conjoined","man","","","W3 and M1 are flirting with each other","flirt3","rating_volition","{""Q0"":4}","[0]","W3 wanted to flirt with M1","M1 wanted to flirt with W3"
"10073.000000000233","","","survey-likert-extra-labels","102","1248890","0.0-38.0-3.0-0.0","37336","1B","conjoined","man","","","W3 and M1 are flirting with each other","flirt3","rating_causation","{""Q0"":5}","[0]","W3 started flirting with M1 first","M1 started flirting with W3 first"
"null","Beth and Fred are playing with each other","","html-keyboard-response","103","1250894","0.0-39.0-0.0","37336","1B","conjoined","man","","null","W3 and M1 are playing with each other","play4","sentence","","","",""
"16596.999999999767","","","survey-likert-extra-labels","104","1267496","0.0-39.0-1.0-0.0","37336","1B","conjoined","man","","","W3 and M1 are playing with each other","play4","rating_causation","{""Q0"":5}","[0]","W3 asked to play with M1","M1 asked to play with W3"
"24992","","","survey-likert-extra-labels","105","1292493","0.0-39.0-2.0","37336","1B","conjoined","man","","","W3 and M1 are playing with each other","play4","rating_volition","{""Q0"":5}","[0]","W3 wanted to play with M1","M1 wanted to play with W3"
"null","Dave and Fred are arguing with each other","","html-keyboard-response","106","1294499","0.0-40.0-0.0","37336","1B","conjoined","man","","null","M3 and M1 are arguing with each other","argue2","sentence","","","",""
"13311","","","survey-likert-extra-labels","107","1307813","0.0-40.0-2.0","37336","1B","conjoined","man","","","M3 and M1 are arguing with each other","argue2","rating_volition","{""Q0"":3}","[0]","M1 wanted to argue with M3","M3 wanted to argue with M1"
"7977","","","survey-likert-extra-labels","108","1315795","0.0-40.0-3.0-0.0","37336","1B","conjoined","man","","","M3 and M1 are arguing with each other","argue2","rating_causation","{""Q0"":3}","[0]","M1 started an argument with M3","M3 started an argument with M1"
"null","Dave and Kate are flirting with each other","","html-keyboard-response","109","1317799","0.0-41.0-0.0","37336","1B","conjoined","man","","null","M3 and W1 are flirting with each other","flirt4","sentence","","","",""
"9368","","","survey-likert-extra-labels","110","1327172","0.0-41.0-2.0","37336","1B","conjoined","man","","","M3 and W1 are flirting with each other","flirt4","rating_volition","{""Q0"":1}","[0]","M3 wanted to flirt with W1","W1 wanted to flirt with M3"
"7953.999999999767","","","survey-likert-extra-labels","111","1335129","0.0-41.0-3.0-0.0","37336","1B","conjoined","man","","","M3 and W1 are flirting with each other","flirt4","rating_causation","{""Q0"":1}","[0]","M3 started flirting with W1 first","W1 started flirting with M3 first"
"null","Luke and Jane are shouting at each other","","html-keyboard-response","112","1337134","0.0-42.0-0.0","37336","1B","conjoined","man","","null","M2 and W4 are shouting at each other","shout3","sentence","","","",""
"13124","","","survey-likert-extra-labels","113","1350263","0.0-42.0-2.0","37336","1B","conjoined","man","","","M2 and W4 are shouting at each other","shout3","rating_volition","{""Q0"":3}","[0]","M2 wanted to shout at W4","W4 wanted to shout at M2"
"8834","","","survey-likert-extra-labels","114","1359101","0.0-42.0-3.0-0.0","37336","1B","conjoined","man","","","M2 and W4 are shouting at each other","shout3","rating_causation","{""Q0"":3}","[0]","M2 shouted at W4 first","W4 shouted at M2 first"
"null","Beth and Kate are arguing with each other","","html-keyboard-response","115","1361106","0.0-43.0-0.0","37336","1B","conjoined","man","","null","W3 and W1 are arguing with each other","argue1","sentence","","","",""
"18320","","","survey-likert-extra-labels","116","1379430","0.0-43.0-1.0-0.0","37336","1B","conjoined","man","","","W3 and W1 are arguing with each other","argue1","rating_causation","{""Q0"":3}","[0]","W1 started an argument with W3","W3 started an argument with W1"
"13547","","","survey-likert-extra-labels","117","1392983","0.0-43.0-2.0","37336","1B","conjoined","man","","","W3 and W1 are arguing with each other","argue1","rating_volition","{""Q0"":3}","[0]","W1 wanted to argue with W3","W3 wanted to argue with W1"
"null","Ruth and Mike are talking to each other","","html-keyboard-response","118","1394987","0.0-44.0-0.0","37336","1B","conjoined","man","","null","W2 and M4 are talking to each other","talk3","sentence","","","",""
"9565.999999999767","","","survey-likert-extra-labels","119","1404558","0.0-44.0-1.0-0.0","37336","1B","conjoined","man","","","W2 and M4 are talking to each other","talk3","rating_causation","{""Q0"":5}","[0]","W2 started a conversation with M4","M4 started a conversation with W2"
"9778","","","survey-likert-extra-labels","120","1414340","0.0-44.0-2.0","37336","1B","conjoined","man","","","W2 and M4 are talking to each other","talk3","rating_volition","{""Q0"":5}","[0]","W2 wanted to talk to M4","M4 wanted to talk to W2"
"null","Kate and Dave are marrying each other","","html-keyboard-response","121","1416345","0.0-45.0-0.0","37336","1B","conjoined","man","","null","W1 and M3 are marrying each other","marry3","sentence","","","",""
"11260","","","survey-likert-extra-labels","122","1427609","0.0-45.0-2.0","37336","1B","conjoined","man","","","W1 and M3 are marrying each other","marry3","rating_volition","{""Q0"":3}","[0]","M3 wanted to marry W1","W1 wanted to marry M3"
"12875","","","survey-likert-extra-labels","123","1440489","0.0-45.0-3.0-0.0","37336","1B","conjoined","man","","","W1 and M3 are marrying each other","marry3","rating_causation","{""Q0"":0}","[0]","M3 asked to marry W1","W1 asked to marry M3"
"null","Ruth is carrying Jane","","html-keyboard-response","124","1442496","0.0-46.0-0.0","37336","1B","conjoined","man","","null","W2 is carrying W4","carry","sentence","","","",""
"16101","","","survey-likert-extra-labels","125","1458601","0.0-46.0-2.0","37336","1B","conjoined","man","","","W2 is carrying W4","carry","rating_volition","{""Q0"":0}","[0]","W2 is transporting W4","W4 is transporting W2"
"9314","","","survey-likert-extra-labels","126","1467923","0.0-46.0-3.0-0.0","37336","1B","conjoined","man","","","W2 is carrying W4","carry","rating_causation","{""Q0"":6}","[0]","W2 is being moved by W4","W4 is being moved by W2"
"null","Kate and Beth are talking to each other","","html-keyboard-response","127","1469928","0.0-47.0-0.0","37336","1B","conjoined","man","","null","W1 and W3 are talking to each other","talk1","sentence","","","",""
"6587","","","survey-likert-extra-labels","128","1476522","0.0-47.0-2.0","37336","1B","conjoined","man","","","W1 and W3 are talking to each other","talk1","rating_volition","{""Q0"":3}","[0]","W1 wanted to talk to W3","W3 wanted to talk to W1"
"11513.999999999767","","","survey-likert-extra-labels","129","1488041","0.0-47.0-3.0-0.0","37336","1B","conjoined","man","","","W1 and W3 are talking to each other","talk1","rating_causation","{""Q0"":3}","[0]","W1 started a conversation with W3","W3 started a conversation with W1"
"null","Mike and Luke are fighting each other","","html-keyboard-response","130","1490046","0.0-48.0-0.0","37336","1B","conjoined","man","","null","M4 and M2 are fighting each other","fight2","sentence","","","",""
"13630.000000000233","","","survey-likert-extra-labels","131","1503680","0.0-48.0-1.0-0.0","37336","1B","conjoined","man","","","M4 and M2 are fighting each other","fight2","rating_causation","{""Q0"":4}","[0]","M2 started the fight with M4","M4 started the fight with M2"
"10773.000000000233","","","survey-likert-extra-labels","132","1514461","0.0-48.0-2.0","37336","1B","conjoined","man","","","M4 and M2 are fighting each other","fight2","rating_volition","{""Q0"":4}","[0]","M2 wanted to fight M4","M4 wanted to fight M2"
"null","Luke and Jane are talking to each other","","html-keyboard-response","133","1516464","0.0-49.0-0.0","37336","1B","conjoined","man","","null","M2 and W4 are talking to each other","talk4","sentence","","","",""
"13099.999999999767","","","survey-likert-extra-labels","134","1529569","0.0-49.0-1.0-0.0","37336","1B","conjoined","man","","","M2 and W4 are talking to each other","talk4","rating_causation","{""Q0"":1}","[0]","M2 started a conversation with W4","W4 started a conversation with M2"
"13481.999999999767","","","survey-likert-extra-labels","135","1543057","0.0-49.0-2.0","37336","1B","conjoined","man","","","M2 and W4 are talking to each other","talk4","rating_volition","{""Q0"":1}","[0]","M2 wanted to talk to W4","W4 wanted to talk to M2"
"null","Luke and Mike are playing with each other","","html-keyboard-response","136","1545060","0.0-50.0-0.0","37336","1B","conjoined","man","","null","M2 and M4 are playing with each other","play2","sentence","","","",""
"9236","","","survey-likert-extra-labels","137","1554300","0.0-50.0-2.0","37336","1B","conjoined","man","","","M2 and M4 are playing with each other","play2","rating_volition","{""Q0"":3}","[0]","M2 wanted to play with M4","M4 wanted to play with M2"
"8250","","","survey-likert-extra-labels","138","1562554","0.0-50.0-3.0-0.0","37336","1B","conjoined","man","","","M2 and M4 are playing with each other","play2","rating_causation","{""Q0"":3}","[0]","M2 asked to play with M4","M4 asked to play with M2"
"null","Ruth and Mike are shouting at each other","","html-keyboard-response","139","1564558","0.0-51.0-0.0","37336","1B","conjoined","man","","null","W2 and M4 are shouting at each other","shout4","sentence","","","",""
"8410","","","survey-likert-extra-labels","140","1572973","0.0-51.0-1.0-0.0","37336","1B","conjoined","man","","","W2 and M4 are shouting at each other","shout4","rating_causation","{""Q0"":4}","[0]","W2 shouted at M4 first","M4 shouted at W2 first"
"8558","","","survey-likert-extra-labels","141","1581536","0.0-51.0-2.0","37336","1B","conjoined","man","","","W2 and M4 are shouting at each other","shout4","rating_volition","{""Q0"":4}","[0]","W2 wanted to shout at M4","M4 wanted to shout at W2"
"null","Kate is chasing Beth","","html-keyboard-response","142","1583540","0.0-52.0-0.0","37336","1B","conjoined","man","","null","W1 is chasing W3","chase","sentence","","","",""
"8180.999999999767","","","survey-likert-extra-labels","143","1591726","0.0-52.0-1.0-0.0","37336","1B","conjoined","man","","","W1 is chasing W3","chase","rating_causation","{""Q0"":6}","[0]","W1 is running away from W3","W3 is running away from W1"
"13896","","","survey-likert-extra-labels","144","1605629","0.0-52.0-2.0","37336","1B","conjoined","man","","","W1 is chasing W3","chase","rating_volition","{""Q0"":0}","[0]","W1 is behind W3","W3 is behind W1"
"null","Mike and Luke are marrying each other","","html-keyboard-response","145","1607633","0.0-53.0-0.0","37336","1B","conjoined","man","","null","M4 and M2 are marrying each other","marry2","sentence","","","",""
"18768","","","survey-likert-extra-labels","146","1626405","0.0-53.0-1.0-0.0","37336","1B","conjoined","man","","","M4 and M2 are marrying each other","marry2","rating_causation","{""Q0"":4}","[0]","M2 asked to marry M4","M4 asked to marry M2"
"7432","","","survey-likert-extra-labels","147","1633843","0.0-53.0-2.0","37336","1B","conjoined","man","","","M4 and M2 are marrying each other","marry2","rating_volition","{""Q0"":3}","[0]","M2 wanted to marry M4","M4 wanted to marry M2"
"null","Kate and Beth are shouting at each other","","html-keyboard-response","148","1635849","0.0-54.0-0.0","37336","1B","conjoined","man","","null","W1 and W3 are shouting at each other","shout1","sentence","","","",""
"16384","","","survey-likert-extra-labels","149","1652237","0.0-54.0-2.0","37336","1B","conjoined","man","","","W1 and W3 are shouting at each other","shout1","rating_volition","{""Q0"":2}","[0]","W1 wanted to shout at W3","W3 wanted to shout at W1"
"10548","","","survey-likert-extra-labels","150","1662789","0.0-54.0-3.0-0.0","37336","1B","conjoined","man","","","W1 and W3 are shouting at each other","shout1","rating_causation","{""Q0"":2}","[0]","W1 shouted at W3 first","W3 shouted at W1 first"
"3825","<p>Thank you for completing that task.</p><p>The final part of this session is a short questionnaire.</p><p>Press Continue.</p>","0","html-button-response","151","1666621","0.0-55.0","37336","1B","conjoined","man","","","","","","","","",""
"70485","","","survey-text","152","1738129","0.0-56.0","37336","1B","conjoined","man","","","","","demographics","{""Q0"":""67"",""Q1"":""English "",""Q2"":""English "",""Q3"":""Uk"",""Q4"":""British "",""Q5"":""White"",""Q6"":""Male""}","","",""
"2979","<p>Have you lived in the UK for the last 5 years or more?</p>","0","html-button-response","153","1741110","0.0-57.0","37336","1B","conjoined","man","","","","","fiveyears","","","",""
"214944.00000000023","","","survey-text","154","1957078","0.0-58.0","37336","1B","conjoined","man","","","","","worker_id","{""Q0"":""5ea823df0f1616224b77eea4""}","","",""
"35351","","","external-html","155","1993019","0.0-59.0","37336","1B","conjoined","man","debrief.html","","","","","","","",""
