"rt","stimulus","button_pressed","trial_type","trial_index","time_elapsed","internal_node_id","subject","list","condition","ppt_gender","url","key_press","sentence_type","verb","test_part","responses","question_order","left_part","right_part"
"1265","Welcome to the experiment. Press Continue to begin.","0","html-button-response","0","1269","0.0-0.0","57558","2A","conjoined","man","","","","","","","","",""
"9403","","","external-html","1","11734","0.0-1.0","57558","2A","conjoined","man","consent.html","","","","","","","",""
"1733","<p>Welcome.</p><p>In this experiment we will ask you to imagine some situations.</p><p>Each trial starts with a description of an event.</p><p>Then you will see alternative descriptions of that event, and you will rate on a scale how best they match the original description.</p><p>You will give your answer by clicking a button on a rating scale.</p><p>To do this task, you will have to use your imagination to visualise these events.</p><br><p>Ready?</p>","0","html-button-response","2","13476","0.0-2.0","57558","2A","conjoined","man","","","","","","","","",""
"2645.999999999998","<p>Before the experiment starts, you will watch an example trial. Press 'Continue'.</p>","0","html-button-response","3","17124","0.0-3.0","57558","2A","conjoined","man","","","","","","","","",""
"null","The police officer is arresting the robber","","html-keyboard-response","4","20128","0.0-4.0","57558","2A","conjoined","man","","null","","","","","","",""
"10533","<img src='img/Example-trial.jpg' style='height:550px;''></img>","0","html-button-response","5","30662","0.0-5.0","57558","2A","conjoined","man","","","","","","","","",""
"1923.0000000000036","<p>Ready to start the experiment?</p><br><p><strong>Remember to give an answer by clicking a button on the rating scale.</strong></p><p>Press 'Continue' to begin.</p>","0","html-button-response","6","33586","0.0-6.0","57558","2A","conjoined","man","","","","","","","","",""
"null","Ruth and Fred are fighting each other","","html-keyboard-response","7","36590","0.0-7.0-0.0","57558","2A","conjoined","man","","null","W1 and M3 are fighting each other","fight4","sentence","","","",""
"4927","","","survey-likert-extra-labels","8","41519","0.0-7.0-1.0-0.0","57558","2A","conjoined","man","","","W1 and M3 are fighting each other","fight4","rating_causation","{""Q0"":3}","[0]","W1 started the fight with M3","M3 started the fight with W1"
"7048.000000000007","","","survey-likert-extra-labels","9","48569","0.0-7.0-2.0","57558","2A","conjoined","man","","","W1 and M3 are fighting each other","fight4","rating_volition","{""Q0"":3}","[0]","W1 wanted to fight M3","M3 wanted to fight W1"
"null","Mike and Dave are marrying each other","","html-keyboard-response","10","50572","0.0-8.0-0.0","57558","2A","conjoined","man","","null","M2 and M4 are marrying each other","marry2","sentence","","","",""
"3366","","","survey-likert-extra-labels","11","53939","0.0-8.0-1.0-0.0","57558","2A","conjoined","man","","","M2 and M4 are marrying each other","marry2","rating_causation","{""Q0"":3}","[0]","M4 asked to marry M2","M2 asked to marry M4"
"6165","","","survey-likert-extra-labels","12","60106","0.0-8.0-2.0","57558","2A","conjoined","man","","","M2 and M4 are marrying each other","marry2","rating_volition","{""Q0"":3}","[0]","M4 wanted to marry M2","M2 wanted to marry M4"
"null","Luke and Fred are kissing each other","","html-keyboard-response","13","62108","0.0-9.0-0.0","57558","2A","conjoined","man","","null","M1 and M3 are kissing each other","kiss2","sentence","","","",""
"3707","","","survey-likert-extra-labels","14","65817","0.0-9.0-1.0-0.0","57558","2A","conjoined","man","","","M1 and M3 are kissing each other","kiss2","rating_causation","{""Q0"":3}","[0]","M3 asked to kiss M1","M1 asked to kiss M3"
"3671","","","survey-likert-extra-labels","15","69490","0.0-9.0-2.0","57558","2A","conjoined","man","","","M1 and M3 are kissing each other","kiss2","rating_volition","{""Q0"":3}","[0]","M3 wanted to kiss M1","M1 wanted to kiss M3"
"null","Mike and Beth are talking to each other","","html-keyboard-response","16","71493","0.0-10.0-0.0","57558","2A","conjoined","man","","null","M2 and W4 are talking to each other","talk4","sentence","","","",""
"2747","","","survey-likert-extra-labels","17","74242","0.0-10.0-1.0-0.0","57558","2A","conjoined","man","","","M2 and W4 are talking to each other","talk4","rating_causation","{""Q0"":3}","[0]","W4 started a conversation with M2","M2 started a conversation with W4"
"2336","","","survey-likert-extra-labels","18","76579","0.0-10.0-2.0","57558","2A","conjoined","man","","","M2 and W4 are talking to each other","talk4","rating_volition","{""Q0"":3}","[0]","W4 wanted to talk to M2","M2 wanted to talk to W4"
"null","Jane is carrying Beth","","html-keyboard-response","19","78582","0.0-11.0-0.0","57558","2A","conjoined","man","","null","W2 is carrying W4","carry","sentence","","","",""
"7594","","","survey-likert-extra-labels","20","86178","0.0-11.0-1.0-0.0","57558","2A","conjoined","man","","","W2 is carrying W4","carry","rating_causation","{""Q0"":6}","[0]","W2 is being moved by W4","W4 is being moved by W2"
"3969","","","survey-likert-extra-labels","21","90149","0.0-11.0-2.0","57558","2A","conjoined","man","","","W2 is carrying W4","carry","rating_volition","{""Q0"":0}","[0]","W2 is transporting W4","W4 is transporting W2"
"null","Ruth and Kate are kissing each other","","html-keyboard-response","22","92152","0.0-12.0-0.0","57558","2A","conjoined","man","","null","W1 and W3 are kissing each other","kiss1","sentence","","","",""
"2381","","","survey-likert-extra-labels","23","94534","0.0-12.0-2.0","57558","2A","conjoined","man","","","W1 and W3 are kissing each other","kiss1","rating_volition","{""Q0"":3}","[0]","W3 wanted to kiss W1","W1 wanted to kiss W3"
"1724","","","survey-likert-extra-labels","24","96260","0.0-12.0-3.0-0.0","57558","2A","conjoined","man","","","W1 and W3 are kissing each other","kiss1","rating_causation","{""Q0"":3}","[0]","W3 asked to kiss W1","W1 asked to kiss W3"
"null","Fred and Luke are shouting at each other","","html-keyboard-response","25","98261","0.0-13.0-0.0","57558","2A","conjoined","man","","null","M3 and M1 are shouting at each other","shout2","sentence","","","",""
"1437","","","survey-likert-extra-labels","26","99700","0.0-13.0-2.0","57558","2A","conjoined","man","","","M3 and M1 are shouting at each other","shout2","rating_volition","{""Q0"":3}","[0]","M3 wanted to shout at M1","M1 wanted to shout at M3"
"1248","","","survey-likert-extra-labels","27","100949","0.0-13.0-3.0-0.0","57558","2A","conjoined","man","","","M3 and M1 are shouting at each other","shout2","rating_causation","{""Q0"":3}","[0]","M3 shouted at M1 first","M1 shouted at M3 first"
"null","Kate and Luke are touching each other","","html-keyboard-response","28","102952","0.0-14.0-0.0","57558","2A","conjoined","man","","null","W3 and M1 are touching each other","touch3","sentence","","","",""
"2049.0000000000146","","","survey-likert-extra-labels","29","105002","0.0-14.0-1.0-0.0","57558","2A","conjoined","man","","","W3 and M1 are touching each other","touch3","rating_causation","{""Q0"":3}","[0]","M1 asked to touch W3","W3 asked to touch M1"
"1153","","","survey-likert-extra-labels","30","106156","0.0-14.0-2.0","57558","2A","conjoined","man","","","W3 and M1 are touching each other","touch3","rating_volition","{""Q0"":3}","[0]","M1 wanted to touch W3","W3 wanted to touch M1"
"null","Ruth and Kate are talking to each other","","html-keyboard-response","31","108159","0.0-15.0-0.0","57558","2A","conjoined","man","","null","W1 and W3 are talking to each other","talk1","sentence","","","",""
"1372","","","survey-likert-extra-labels","32","109532","0.0-15.0-1.0-0.0","57558","2A","conjoined","man","","","W1 and W3 are talking to each other","talk1","rating_causation","{""Q0"":3}","[0]","W3 started a conversation with W1","W1 started a conversation with W3"
"1383","","","survey-likert-extra-labels","33","110918","0.0-15.0-2.0","57558","2A","conjoined","man","","","W1 and W3 are talking to each other","talk1","rating_volition","{""Q0"":3}","[0]","W3 wanted to talk to W1","W1 wanted to talk to W3"
"null","Fred and Ruth are marrying each other","","html-keyboard-response","34","112920","0.0-16.0-0.0","57558","2A","conjoined","man","","null","M3 and W1 are marrying each other","marry3","sentence","","","",""
"1604.0000000000146","","","survey-likert-extra-labels","35","114526","0.0-16.0-2.0","57558","2A","conjoined","man","","","M3 and W1 are marrying each other","marry3","rating_volition","{""Q0"":3}","[0]","W1 wanted to marry M3","M3 wanted to marry W1"
"1242","","","survey-likert-extra-labels","36","115770","0.0-16.0-3.0-0.0","57558","2A","conjoined","man","","","M3 and W1 are marrying each other","marry3","rating_causation","{""Q0"":3}","[0]","W1 asked to marry M3","M3 asked to marry W1"
"null","Ruth is chasing Kate","","html-keyboard-response","37","117773","0.0-17.0-0.0","57558","2A","conjoined","man","","null","W1 is chasing W3","chase","sentence","","","",""
"5256","","","survey-likert-extra-labels","38","123030","0.0-17.0-1.0-0.0","57558","2A","conjoined","man","","","W1 is chasing W3","chase","rating_causation","{""Q0"":0}","[0]","W1 is running away from W3","W3 is running away from W1"
"3399","","","survey-likert-extra-labels","39","126431","0.0-17.0-2.0","57558","2A","conjoined","man","","","W1 is chasing W3","chase","rating_volition","{""Q0"":0}","[0]","W1 is behind W3","W3 is behind W1"
"null","Mike is posing for Dave","","html-keyboard-response","40","128433","0.0-18.0-0.0","57558","2A","conjoined","man","","null","M2 is posing for M4","pose","sentence","","","",""
"6275.000000000015","","","survey-likert-extra-labels","41","134711","0.0-18.0-1.0-0.0","57558","2A","conjoined","man","","","M2 is posing for M4","pose","rating_causation","{""Q0"":6}","[0]","M2 is photographing M4","M4 is photographing M2"
"3188","","","survey-likert-extra-labels","42","137901","0.0-18.0-2.0","57558","2A","conjoined","man","","","M2 is posing for M4","pose","rating_volition","{""Q0"":6}","[0]","M2 is modelling for M4","M4 is modelling for M2"
"null","Kate is feeding Luke","","html-keyboard-response","43","139903","0.0-19.0-0.0","57558","2A","conjoined","man","","null","W3 is feeding M1","feed","sentence","","","",""
"5363","","","survey-likert-extra-labels","44","145269","0.0-19.0-1.0-0.0","57558","2A","conjoined","man","","","W3 is feeding M1","feed","rating_causation","{""Q0"":6}","[0]","W3 is eating M1's food","M1 is eating W3's food"
"3838","","","survey-likert-extra-labels","45","149109","0.0-19.0-2.0","57558","2A","conjoined","man","","","W3 is feeding M1","feed","rating_volition","{""Q0"":0}","[0]","W3 is giving M1 food","M1 is giving W3 food"
"null","Kate and Ruth are arguing with each other","","html-keyboard-response","46","151111","0.0-20.0-0.0","57558","2A","conjoined","man","","null","W3 and W1 are arguing with each other","argue1","sentence","","","",""
"1856","","","survey-likert-extra-labels","47","152969","0.0-20.0-1.0-0.0","57558","2A","conjoined","man","","","W3 and W1 are arguing with each other","argue1","rating_causation","{""Q0"":3}","[0]","W3 started an argument with W1","W1 started an argument with W3"
"1268","","","survey-likert-extra-labels","48","154239","0.0-20.0-2.0","57558","2A","conjoined","man","","","W3 and W1 are arguing with each other","argue1","rating_volition","{""Q0"":3}","[0]","W3 wanted to argue with W1","W1 wanted to argue with W3"
"null","Luke and Fred are dancing with each other","","html-keyboard-response","49","156241","0.0-21.0-0.0","57558","2A","conjoined","man","","null","M1 and M3 are dancing with each other","dance2","sentence","","","",""
"1598","","","survey-likert-extra-labels","50","157841","0.0-21.0-2.0","57558","2A","conjoined","man","","","M1 and M3 are dancing with each other","dance2","rating_volition","{""Q0"":3}","[0]","M3 wanted to dance with M1","M1 wanted to dance with M3"
"1268","","","survey-likert-extra-labels","51","159111","0.0-21.0-3.0-0.0","57558","2A","conjoined","man","","","M1 and M3 are dancing with each other","dance2","rating_causation","{""Q0"":3}","[0]","M3 asked M1 to dance","M1 asked M3 to dance"
"null","Jane and Beth are marrying each other","","html-keyboard-response","52","161114","0.0-22.0-0.0","57558","2A","conjoined","man","","null","W2 and W4 are marrying each other","marry1","sentence","","","",""
"2182","","","survey-likert-extra-labels","53","163297","0.0-22.0-2.0","57558","2A","conjoined","man","","","W2 and W4 are marrying each other","marry1","rating_volition","{""Q0"":3}","[0]","W4 wanted to marry W2","W2 wanted to marry W4"
"1401","","","survey-likert-extra-labels","54","164700","0.0-22.0-3.0-0.0","57558","2A","conjoined","man","","","W2 and W4 are marrying each other","marry1","rating_causation","{""Q0"":3}","[0]","W4 asked to marry W2","W2 asked to marry W4"
"null","Kate and Luke are flirting with each other","","html-keyboard-response","55","166703","0.0-23.0-0.0","57558","2A","conjoined","man","","null","W3 and M1 are flirting with each other","flirt3","sentence","","","",""
"4851","","","survey-likert-extra-labels","56","171555","0.0-23.0-1.0-0.0","57558","2A","conjoined","man","","","W3 and M1 are flirting with each other","flirt3","rating_causation","{""Q0"":3}","[0]","M1 started flirting with W3 first","W3 started flirting with M1 first"
"1718.999999999971","","","survey-likert-extra-labels","57","173275","0.0-23.0-2.0","57558","2A","conjoined","man","","","W3 and M1 are flirting with each other","flirt3","rating_volition","{""Q0"":3}","[0]","M1 wanted to flirt with W3","W3 wanted to flirt with M1"
"null","Luke and Fred are talking to each other","","html-keyboard-response","58","175278","0.0-24.0-0.0","57558","2A","conjoined","man","","null","M1 and M3 are talking to each other","talk2","sentence","","","",""
"2710","","","survey-likert-extra-labels","59","177990","0.0-24.0-2.0","57558","2A","conjoined","man","","","M1 and M3 are talking to each other","talk2","rating_volition","{""Q0"":3}","[0]","M3 wanted to talk to M1","M1 wanted to talk to M3"
"1700.999999999971","","","survey-likert-extra-labels","60","179693","0.0-24.0-3.0-0.0","57558","2A","conjoined","man","","","M1 and M3 are talking to each other","talk2","rating_causation","{""Q0"":3}","[0]","M3 started a conversation with M1","M1 started a conversation with M3"
"null","Dave and Jane are shouting at each other","","html-keyboard-response","61","181694","0.0-25.0-0.0","57558","2A","conjoined","man","","null","M4 and W2 are shouting at each other","shout4","sentence","","","",""
"1389","","","survey-likert-extra-labels","62","183084","0.0-25.0-1.0-0.0","57558","2A","conjoined","man","","","M4 and W2 are shouting at each other","shout4","rating_causation","{""Q0"":3}","[0]","M4 shouted at W2 first","W2 shouted at M4 first"
"1390","","","survey-likert-extra-labels","63","184475","0.0-25.0-2.0","57558","2A","conjoined","man","","","M4 and W2 are shouting at each other","shout4","rating_volition","{""Q0"":3}","[0]","M4 wanted to shout at W2","W2 wanted to shout at M4"
"null","Dave and Jane are arguing with each other","","html-keyboard-response","64","186478","0.0-26.0-0.0","57558","2A","conjoined","man","","null","M4 and W2 are arguing with each other","argue3","sentence","","","",""
"1239.999999999971","","","survey-likert-extra-labels","65","187720","0.0-26.0-1.0-0.0","57558","2A","conjoined","man","","","M4 and W2 are arguing with each other","argue3","rating_causation","{""Q0"":3}","[0]","M4 started an argument with W2","W2 started an argument with M4"
"1314","","","survey-likert-extra-labels","66","189036","0.0-26.0-2.0","57558","2A","conjoined","man","","","M4 and W2 are arguing with each other","argue3","rating_volition","{""Q0"":3}","[0]","M4 wanted to argue with W2","W2 wanted to argue with M4"
"null","Jane and Dave are kissing each other","","html-keyboard-response","67","191037","0.0-27.0-0.0","57558","2A","conjoined","man","","null","W2 and M4 are kissing each other","kiss4","sentence","","","",""
"977","","","survey-likert-extra-labels","68","192016","0.0-27.0-2.0","57558","2A","conjoined","man","","","W2 and M4 are kissing each other","kiss4","rating_volition","{""Q0"":3}","[0]","M4 wanted to kiss W2","W2 wanted to kiss M4"
"1048","","","survey-likert-extra-labels","69","193066","0.0-27.0-3.0-0.0","57558","2A","conjoined","man","","","W2 and M4 are kissing each other","kiss4","rating_causation","{""Q0"":3}","[0]","M4 asked to kiss W2","W2 asked to kiss M4"
"null","Jane is teaching Dave","","html-keyboard-response","70","195068","0.0-28.0-0.0","57558","2A","conjoined","man","","null","W2 is teaching M4","teach","sentence","","","",""
"3620.999999999971","","","survey-likert-extra-labels","71","198690","0.0-28.0-1.0-0.0","57558","2A","conjoined","man","","","W2 is teaching M4","teach","rating_causation","{""Q0"":6}","[0]","W2 is learning from M4","M4 is learning from W2"
"2545.000000000029","","","survey-likert-extra-labels","72","201236","0.0-28.0-2.0","57558","2A","conjoined","man","","","W2 is teaching M4","teach","rating_volition","{""Q0"":0}","[0]","W2 is educating M4","M4 is educating W2"
"null","Fred is hiring Ruth","","html-keyboard-response","73","203238","0.0-29.0-0.0","57558","2A","conjoined","man","","null","M3 is hiring W1","hire","sentence","","","",""
"2856","","","survey-likert-extra-labels","74","206096","0.0-29.0-2.0","57558","2A","conjoined","man","","","M3 is hiring W1","hire","rating_volition","{""Q0"":0}","[0]","M3 is employing W1","W1 is employing M3"
"2875","","","survey-likert-extra-labels","75","208972","0.0-29.0-3.0-0.0","57558","2A","conjoined","man","","","M3 is hiring W1","hire","rating_causation","{""Q0"":6}","[0]","M3 will work for W1","W1 will work for M3"
"null","Jane and Beth are touching each other","","html-keyboard-response","76","210975","0.0-30.0-0.0","57558","2A","conjoined","man","","null","W2 and W4 are touching each other","touch1","sentence","","","",""
"1252","","","survey-likert-extra-labels","77","212228","0.0-30.0-1.0-0.0","57558","2A","conjoined","man","","","W2 and W4 are touching each other","touch1","rating_causation","{""Q0"":3}","[0]","W4 asked to touch W2","W2 asked to touch W4"
"2261","","","survey-likert-extra-labels","78","214490","0.0-30.0-2.0","57558","2A","conjoined","man","","","W2 and W4 are touching each other","touch1","rating_volition","{""Q0"":3}","[0]","W4 wanted to touch W2","W2 wanted to touch W4"
"null","Luke and Kate are fighting each other","","html-keyboard-response","79","216493","0.0-31.0-0.0","57558","2A","conjoined","man","","null","M1 and W3 are fighting each other","fight3","sentence","","","",""
"959","","","survey-likert-extra-labels","80","217452","0.0-31.0-1.0-0.0","57558","2A","conjoined","man","","","M1 and W3 are fighting each other","fight3","rating_causation","{""Q0"":3}","[0]","M1 started the fight with W3","W3 started the fight with M1"
"1281","","","survey-likert-extra-labels","81","218734","0.0-31.0-2.0","57558","2A","conjoined","man","","","M1 and W3 are fighting each other","fight3","rating_volition","{""Q0"":3}","[0]","M1 wanted to fight W3","W3 wanted to fight M1"
"null","Jane and Dave are talking to each other","","html-keyboard-response","82","220737","0.0-32.0-0.0","57558","2A","conjoined","man","","null","W2 and M4 are talking to each other","talk3","sentence","","","",""
"2593","","","survey-likert-extra-labels","83","223331","0.0-32.0-1.0-0.0","57558","2A","conjoined","man","","","W2 and M4 are talking to each other","talk3","rating_causation","{""Q0"":3}","[0]","M4 started a conversation with W2","W2 started a conversation with M4"
"1312","","","survey-likert-extra-labels","84","224645","0.0-32.0-2.0","57558","2A","conjoined","man","","","W2 and M4 are talking to each other","talk3","rating_volition","{""Q0"":3}","[0]","M4 wanted to talk to W2","W2 wanted to talk to M4"
"null","Fred and Ruth are flirting with each other","","html-keyboard-response","85","226647","0.0-33.0-0.0","57558","2A","conjoined","man","","null","M3 and W1 are flirting with each other","flirt4","sentence","","","",""
"1202.999999999971","","","survey-likert-extra-labels","86","227851","0.0-33.0-2.0","57558","2A","conjoined","man","","","M3 and W1 are flirting with each other","flirt4","rating_volition","{""Q0"":3}","[0]","W1 wanted to flirt with M3","M3 wanted to flirt with W1"
"2176.000000000029","","","survey-likert-extra-labels","87","230029","0.0-33.0-3.0-0.0","57558","2A","conjoined","man","","","M3 and W1 are flirting with each other","flirt4","rating_causation","{""Q0"":3}","[0]","W1 started flirting with M3 first","M3 started flirting with W1 first"
"null","Ruth and Kate are dancing with each other","","html-keyboard-response","88","232032","0.0-34.0-0.0","57558","2A","conjoined","man","","null","W1 and W3 are dancing with each other","dance1","sentence","","","",""
"1580","","","survey-likert-extra-labels","89","233613","0.0-34.0-2.0","57558","2A","conjoined","man","","","W1 and W3 are dancing with each other","dance1","rating_volition","{""Q0"":3}","[0]","W3 wanted to dance with W1","W1 wanted to dance with W3"
"1425","","","survey-likert-extra-labels","90","235039","0.0-34.0-3.0-0.0","57558","2A","conjoined","man","","","W1 and W3 are dancing with each other","dance1","rating_causation","{""Q0"":3}","[0]","W3 asked W1 to dance","W1 asked W3 to dance"
"null","Dave and Mike are fighting each other","","html-keyboard-response","91","237042","0.0-35.0-0.0","57558","2A","conjoined","man","","null","M4 and M2 are fighting each other","fight2","sentence","","","",""
"1098","","","survey-likert-extra-labels","92","238141","0.0-35.0-1.0-0.0","57558","2A","conjoined","man","","","M4 and M2 are fighting each other","fight2","rating_causation","{""Q0"":3}","[0]","M4 started the fight with M2","M2 started the fight with M4"
"3062","","","survey-likert-extra-labels","93","241205","0.0-35.0-2.0","57558","2A","conjoined","man","","","M4 and M2 are fighting each other","fight2","rating_volition","{""Q0"":3}","[0]","M4 wanted to fight M2","M2 wanted to fight M4"
"null","Luke is driving Fred","","html-keyboard-response","94","243208","0.0-36.0-0.0","57558","2A","conjoined","man","","null","M1 is driving M3","drive","sentence","","","",""
"2532","","","survey-likert-extra-labels","95","245741","0.0-36.0-2.0","57558","2A","conjoined","man","","","M1 is driving M3","drive","rating_volition","{""Q0"":0}","[0]","M3 is M1's passenger","M1 is M3's passenger"
"2361","","","survey-likert-extra-labels","96","248104","0.0-36.0-3.0-0.0","57558","2A","conjoined","man","","","M1 is driving M3","drive","rating_causation","{""Q0"":0}","[0]","M3 is taking M1 somewhere","M1 is taking M3 somewhere"
"null","Beth and Jane are fighting each other","","html-keyboard-response","97","250106","0.0-37.0-0.0","57558","2A","conjoined","man","","null","W4 and W2 are fighting each other","fight1","sentence","","","",""
"1196","","","survey-likert-extra-labels","98","251303","0.0-37.0-2.0","57558","2A","conjoined","man","","","W4 and W2 are fighting each other","fight1","rating_volition","{""Q0"":3}","[0]","W4 wanted to fight W2","W2 wanted to fight W4"
"1264","","","survey-likert-extra-labels","99","252570","0.0-37.0-3.0-0.0","57558","2A","conjoined","man","","","W4 and W2 are fighting each other","fight1","rating_causation","{""Q0"":3}","[0]","W4 started the fight with W2","W2 started the fight with W4"
"null","Jane and Dave are dancing with each other","","html-keyboard-response","100","254572","0.0-38.0-0.0","57558","2A","conjoined","man","","null","W2 and M4 are dancing with each other","dance3","sentence","","","",""
"1810.000000000029","","","survey-likert-extra-labels","101","256384","0.0-38.0-1.0-0.0","57558","2A","conjoined","man","","","W2 and M4 are dancing with each other","dance3","rating_causation","{""Q0"":3}","[0]","M4 asked W2 to dance","W2 asked M4 to dance"
"1556.0000000000582","","","survey-likert-extra-labels","102","257942","0.0-38.0-2.0","57558","2A","conjoined","man","","","W2 and M4 are dancing with each other","dance3","rating_volition","{""Q0"":3}","[0]","M4 wanted to dance with W2","W2 wanted to dance with M4"
"null","Fred and Ruth are touching each other","","html-keyboard-response","103","259944","0.0-39.0-0.0","57558","2A","conjoined","man","","null","M3 and W1 are touching each other","touch4","sentence","","","",""
"1111","","","survey-likert-extra-labels","104","261056","0.0-39.0-1.0-0.0","57558","2A","conjoined","man","","","M3 and W1 are touching each other","touch4","rating_causation","{""Q0"":3}","[0]","W1 asked to touch M3","M3 asked to touch W1"
"1460","","","survey-likert-extra-labels","105","262518","0.0-39.0-2.0","57558","2A","conjoined","man","","","M3 and W1 are touching each other","touch4","rating_volition","{""Q0"":3}","[0]","W1 wanted to touch M3","M3 wanted to touch W1"
"null","Mike is reminding Beth","","html-keyboard-response","106","264521","0.0-40.0-0.0","57558","2A","conjoined","man","","null","M2 is reminding W4","remind","sentence","","","",""
"4118","","","survey-likert-extra-labels","107","268640","0.0-40.0-1.0-0.0","57558","2A","conjoined","man","","","M2 is reminding W4","remind","rating_causation","{""Q0"":6}","[0]","M2 is remembering","W4 is remembering"
"3383","","","survey-likert-extra-labels","108","272024","0.0-40.0-2.0","57558","2A","conjoined","man","","","M2 is reminding W4","remind","rating_volition","{""Q0"":0}","[0]","M2 is telling W4 again","W4 is telling M2 again"
"null","Beth and Mike are arguing with each other","","html-keyboard-response","109","274027","0.0-41.0-0.0","57558","2A","conjoined","man","","null","W4 and M2 are arguing with each other","argue4","sentence","","","",""
"2044","","","survey-likert-extra-labels","110","276072","0.0-41.0-1.0-0.0","57558","2A","conjoined","man","","","W4 and M2 are arguing with each other","argue4","rating_causation","{""Q0"":3}","[0]","W4 started an argument with M2","M2 started an argument with W4"
"1263.9999999999418","","","survey-likert-extra-labels","111","277338","0.0-41.0-2.0","57558","2A","conjoined","man","","","W4 and M2 are arguing with each other","argue4","rating_volition","{""Q0"":3}","[0]","W4 wanted to argue with M2","M2 wanted to argue with W4"
"null","Fred and Luke are arguing with each other","","html-keyboard-response","112","279341","0.0-42.0-0.0","57558","2A","conjoined","man","","null","M3 and M1 are arguing with each other","argue2","sentence","","","",""
"1108","","","survey-likert-extra-labels","113","280450","0.0-42.0-1.0-0.0","57558","2A","conjoined","man","","","M3 and M1 are arguing with each other","argue2","rating_causation","{""Q0"":3}","[0]","M3 started an argument with M1","M1 started an argument with M3"
"1319","","","survey-likert-extra-labels","114","281770","0.0-42.0-2.0","57558","2A","conjoined","man","","","M3 and M1 are arguing with each other","argue2","rating_volition","{""Q0"":3}","[0]","M3 wanted to argue with M1","M1 wanted to argue with M3"
"null","Mike and Dave are touching each other","","html-keyboard-response","115","283772","0.0-43.0-0.0","57558","2A","conjoined","man","","null","M2 and M4 are touching each other","touch2","sentence","","","",""
"1773","","","survey-likert-extra-labels","116","285546","0.0-43.0-2.0","57558","2A","conjoined","man","","","M2 and M4 are touching each other","touch2","rating_volition","{""Q0"":3}","[0]","M4 wanted to touch M2","M2 wanted to touch M4"
"1189","","","survey-likert-extra-labels","117","286737","0.0-43.0-3.0-0.0","57558","2A","conjoined","man","","","M2 and M4 are touching each other","touch2","rating_causation","{""Q0"":3}","[0]","M4 asked to touch M2","M2 asked to touch M4"
"null","Beth and Jane are playing with each other","","html-keyboard-response","118","288739","0.0-44.0-0.0","57558","2A","conjoined","man","","null","W4 and W2 are playing with each other","play1","sentence","","","",""
"1424","","","survey-likert-extra-labels","119","290165","0.0-44.0-2.0","57558","2A","conjoined","man","","","W4 and W2 are playing with each other","play1","rating_volition","{""Q0"":3}","[0]","W4 wanted to play with W2","W2 wanted to play with W4"
"1354","","","survey-likert-extra-labels","120","291521","0.0-44.0-3.0-0.0","57558","2A","conjoined","man","","","W4 and W2 are playing with each other","play1","rating_causation","{""Q0"":3}","[0]","W4 asked to play with W2","W2 asked to play with W4"
"null","Mike and Beth are dancing with each other","","html-keyboard-response","121","293523","0.0-45.0-0.0","57558","2A","conjoined","man","","null","M2 and W4 are dancing with each other","dance4","sentence","","","",""
"6791","","","survey-likert-extra-labels","122","300315","0.0-45.0-1.0-0.0","57558","2A","conjoined","man","","","M2 and W4 are dancing with each other","dance4","rating_causation","{""Q0"":3}","[0]","W4 asked M2 to dance","M2 asked W4 to dance"
"1312","","","survey-likert-extra-labels","123","301629","0.0-45.0-2.0","57558","2A","conjoined","man","","","M2 and W4 are dancing with each other","dance4","rating_volition","{""Q0"":3}","[0]","W4 wanted to dance with M2","M2 wanted to dance with W4"
"null","Dave and Mike are playing with each other","","html-keyboard-response","124","303632","0.0-46.0-0.0","57558","2A","conjoined","man","","null","M4 and M2 are playing with each other","play2","sentence","","","",""
"1524","","","survey-likert-extra-labels","125","305158","0.0-46.0-2.0","57558","2A","conjoined","man","","","M4 and M2 are playing with each other","play2","rating_volition","{""Q0"":3}","[0]","M4 wanted to play with M2","M2 wanted to play with M4"
"1357.9999999999418","","","survey-likert-extra-labels","126","306518","0.0-46.0-3.0-0.0","57558","2A","conjoined","man","","","M4 and M2 are playing with each other","play2","rating_causation","{""Q0"":3}","[0]","M4 asked to play with M2","M2 asked to play with M4"
"null","Kate and Ruth are shouting at each other","","html-keyboard-response","127","308520","0.0-47.0-0.0","57558","2A","conjoined","man","","null","W3 and W1 are shouting at each other","shout1","sentence","","","",""
"996","","","survey-likert-extra-labels","128","309518","0.0-47.0-1.0-0.0","57558","2A","conjoined","man","","","W3 and W1 are shouting at each other","shout1","rating_causation","{""Q0"":3}","[0]","W3 shouted at W1 first","W1 shouted at W3 first"
"1533","","","survey-likert-extra-labels","129","311052","0.0-47.0-2.0","57558","2A","conjoined","man","","","W3 and W1 are shouting at each other","shout1","rating_volition","{""Q0"":3}","[0]","W3 wanted to shout at W1","W1 wanted to shout at W3"
"null","Beth and Mike are shouting at each other","","html-keyboard-response","130","313055","0.0-48.0-0.0","57558","2A","conjoined","man","","null","W4 and M2 are shouting at each other","shout3","sentence","","","",""
"1125","","","survey-likert-extra-labels","131","314182","0.0-48.0-2.0","57558","2A","conjoined","man","","","W4 and M2 are shouting at each other","shout3","rating_volition","{""Q0"":3}","[0]","W4 wanted to shout at M2","M2 wanted to shout at W4"
"1231.9999999999418","","","survey-likert-extra-labels","132","315416","0.0-48.0-3.0-0.0","57558","2A","conjoined","man","","","W4 and M2 are shouting at each other","shout3","rating_causation","{""Q0"":3}","[0]","W4 shouted at M2 first","M2 shouted at W4 first"
"null","Mike and Beth are kissing each other","","html-keyboard-response","133","317419","0.0-49.0-0.0","57558","2A","conjoined","man","","null","M2 and W4 are kissing each other","kiss3","sentence","","","",""
"2532","","","survey-likert-extra-labels","134","319952","0.0-49.0-1.0-0.0","57558","2A","conjoined","man","","","M2 and W4 are kissing each other","kiss3","rating_causation","{""Q0"":3}","[0]","W4 asked to kiss M2","M2 asked to kiss W4"
"1292","","","survey-likert-extra-labels","135","321246","0.0-49.0-2.0","57558","2A","conjoined","man","","","M2 and W4 are kissing each other","kiss3","rating_volition","{""Q0"":3}","[0]","W4 wanted to kiss M2","M2 wanted to kiss W4"
"null","Jane and Beth are flirting with each other","","html-keyboard-response","136","323248","0.0-50.0-0.0","57558","2A","conjoined","man","","null","W2 and W4 are flirting with each other","flirt1","sentence","","","",""
"1212","","","survey-likert-extra-labels","137","324462","0.0-50.0-2.0","57558","2A","conjoined","man","","","W2 and W4 are flirting with each other","flirt1","rating_volition","{""Q0"":3}","[0]","W4 wanted to flirt with W2","W2 wanted to flirt with W4"
"1030","","","survey-likert-extra-labels","138","325494","0.0-50.0-3.0-0.0","57558","2A","conjoined","man","","","W2 and W4 are flirting with each other","flirt1","rating_causation","{""Q0"":3}","[0]","W4 started flirting with W2 first","W2 started flirting with W4 first"
"null","Mike and Dave are flirting with each other","","html-keyboard-response","139","327497","0.0-51.0-0.0","57558","2A","conjoined","man","","null","M2 and M4 are flirting with each other","flirt2","sentence","","","",""
"1324","","","survey-likert-extra-labels","140","328822","0.0-51.0-2.0","57558","2A","conjoined","man","","","M2 and M4 are flirting with each other","flirt2","rating_volition","{""Q0"":3}","[0]","M4 wanted to flirt with M2","M2 wanted to flirt with M4"
"1392","","","survey-likert-extra-labels","141","330216","0.0-51.0-3.0-0.0","57558","2A","conjoined","man","","","M2 and M4 are flirting with each other","flirt2","rating_causation","{""Q0"":3}","[0]","M4 started flirting with M2 first","M2 started flirting with M4 first"
"null","Luke and Kate are playing with each other","","html-keyboard-response","142","332219","0.0-52.0-0.0","57558","2A","conjoined","man","","null","M1 and W3 are playing with each other","play4","sentence","","","",""
"3514","","","survey-likert-extra-labels","143","335735","0.0-52.0-1.0-0.0","57558","2A","conjoined","man","","","M1 and W3 are playing with each other","play4","rating_causation","{""Q0"":3}","[0]","M1 asked to play with W3","W3 asked to play with M1"
"1138.0000000000582","","","survey-likert-extra-labels","144","336874","0.0-52.0-2.0","57558","2A","conjoined","man","","","M1 and W3 are playing with each other","play4","rating_volition","{""Q0"":3}","[0]","M1 wanted to play with W3","W3 wanted to play with M1"
"null","Kate and Luke are marrying each other","","html-keyboard-response","145","338877","0.0-53.0-0.0","57558","2A","conjoined","man","","null","W3 and M1 are marrying each other","marry4","sentence","","","",""
"1208","","","survey-likert-extra-labels","146","340087","0.0-53.0-2.0","57558","2A","conjoined","man","","","W3 and M1 are marrying each other","marry4","rating_volition","{""Q0"":3}","[0]","M1 wanted to marry W3","W3 wanted to marry M1"
"1274","","","survey-likert-extra-labels","147","341363","0.0-53.0-3.0-0.0","57558","2A","conjoined","man","","","W3 and M1 are marrying each other","marry4","rating_causation","{""Q0"":3}","[0]","M1 asked to marry W3","W3 asked to marry M1"
"null","Ruth and Fred are playing with each other","","html-keyboard-response","148","343365","0.0-54.0-0.0","57558","2A","conjoined","man","","null","W1 and M3 are playing with each other","play3","sentence","","","",""
"1176","","","survey-likert-extra-labels","149","344543","0.0-54.0-2.0","57558","2A","conjoined","man","","","W1 and M3 are playing with each other","play3","rating_volition","{""Q0"":3}","[0]","W1 wanted to play with M3","M3 wanted to play with W1"
"1684","","","survey-likert-extra-labels","150","346229","0.0-54.0-3.0-0.0","57558","2A","conjoined","man","","","W1 and M3 are playing with each other","play3","rating_causation","{""Q0"":3}","[0]","W1 asked to play with M3","M3 asked to play with W1"
"2351","<p>Thank you for completing that task.</p><p>The final part of this session is a short questionnaire.</p><p>Press Continue.</p>","0","html-button-response","151","348581","0.0-55.0","57558","2A","conjoined","man","","","","","","","","",""
"19667.99999999994","","","survey-text","152","369269","0.0-56.0","57558","2A","conjoined","man","","","","","demographics","{""Q0"":""35"",""Q1"":""English"",""Q2"":""English"",""Q3"":""United Kingdom"",""Q4"":""British"",""Q5"":""White"",""Q6"":""Male""}","","",""
"1422","<p>Have you lived in the UK for the last 5 years or more?</p>","0","html-button-response","153","370692","0.0-57.0","57558","2A","conjoined","man","","","","","fiveyears","","","",""
"1947","","","survey-text","154","373646","0.0-58.0","57558","2A","conjoined","man","","","","","worker_id","{""Q0"":""5d298a41c0898e001ab08dd9""}","","",""
"10306.999999999942","","","external-html","155","384016","0.0-59.0","57558","2A","conjoined","man","debrief.html","","","","","","","",""
