rt,stimulus,button_pressed,trial_type,trial_index,time_elapsed,internal_node_id,subject,list,condition,ppt_gender,url,key_press,sentence_type,verb,test_part,responses,question_order,left_part,right_part
7171,Welcome to the experiment. Press Continue to begin.,0,html-button-response,0,7178,0.0-0.0,63043,4B,conjoined,woman,,,,,,,,,
6648,,,external-html,1,14900,0.0-1.0,63043,4B,conjoined,woman,consent.html,,,,,,,,
25003,"<p>Welcome.</p><p>In this experiment we will ask you to imagine some situations.</p><p>Each trial starts with a description of an event.</p><p>Then you will see alternative descriptions of that event, and you will rate on a scale how best they match the original description.</p><p>You will give your answer by clicking a button on a rating scale.</p><p>To do this task, you will have to use your imagination to visualise these events.</p><br><p>Ready?</p>",0,html-button-response,2,39905,0.0-2.0,63043,4B,conjoined,woman,,,,,,,,,
3183,"<p>Before the experiment starts, you will watch an example trial. Press 'Continue'.</p>",0,html-button-response,3,44091,0.0-3.0,63043,4B,conjoined,woman,,,,,,,,,
null,The police officer is arresting the robber,,html-keyboard-response,4,47096,0.0-4.0,63043,4B,conjoined,woman,,null,,,,,,,
7691,<img src='img/Example-trial.jpg' style='height:550px;''></img>,0,html-button-response,5,54788,0.0-5.0,63043,4B,conjoined,woman,,,,,,,,,
2655,<p>Ready to start the experiment?</p><br><p><strong>Remember to give an answer by clicking a button on the rating scale.</strong></p><p>Press 'Continue' to begin.</p>,0,html-button-response,6,58444,0.0-6.0,63043,4B,conjoined,woman,,,,,,,,,
null,Ruth is shouting at Mike,,html-keyboard-response,7,61448,0.0-7.0-0.0,63043,4B,conjoined,woman,,null,W2 is shouting at M4,shout4,sentence,,,,
3087,,,survey-likert-extra-labels,8,64538,0.0-7.0-1.0-0.0,63043,4B,conjoined,woman,,,W2 is shouting at M4,shout4,rating_causation,"{""Q0"":6}",[0],M4 shouted at W2 first,W2 shouted at M4 first
10146,,,survey-likert-extra-labels,9,74686,0.0-7.0-2.0,63043,4B,conjoined,woman,,,W2 is shouting at M4,shout4,rating_volition,"{""Q0"":6}",[0],M4 wanted to shout at W2,W2 wanted to shout at M4
null,Ruth is carrying Jane,,html-keyboard-response,10,76690,0.0-8.0-0.0,63043,4B,conjoined,woman,,null,W2 is carrying W4,carry,sentence,,,,
4815,,,survey-likert-extra-labels,11,81508,0.0-8.0-1.0-0.0,63043,4B,conjoined,woman,,,W2 is carrying W4,carry,rating_causation,"{""Q0"":6}",[0],W2 is being moved by W4,W4 is being moved by W2
4062,,,survey-likert-extra-labels,12,85571,0.0-8.0-2.0,63043,4B,conjoined,woman,,,W2 is carrying W4,carry,rating_volition,"{""Q0"":0}",[0],W2 is transporting W4,W4 is transporting W2
null,Jane is marrying Ruth,,html-keyboard-response,13,87575,0.0-9.0-0.0,63043,4B,conjoined,woman,,null,W4 is marrying W2,marry1,sentence,,,,
4962,,,survey-likert-extra-labels,14,92539,0.0-9.0-2.0,63043,4B,conjoined,woman,,,W4 is marrying W2,marry1,rating_volition,"{""Q0"":0}",[0],W4 wanted to marry W2,W2 wanted to marry W4
5604,,,survey-likert-extra-labels,15,98146,0.0-9.0-3.0-0.0,63043,4B,conjoined,woman,,,W4 is marrying W2,marry1,rating_causation,"{""Q0"":0}",[0],W4 asked to marry W2,W2 asked to marry W4
null,Fred is driving Dave,,html-keyboard-response,16,100150,0.0-10.0-0.0,63043,4B,conjoined,woman,,null,M1 is driving M3,drive,sentence,,,,
5961,,,survey-likert-extra-labels,17,106114,0.0-10.0-2.0,63043,4B,conjoined,woman,,,M1 is driving M3,drive,rating_volition,"{""Q0"":0}",[0],M3 is M1's passenger,M1 is M3's passenger
6543,,,survey-likert-extra-labels,18,112659,0.0-10.0-3.0-0.0,63043,4B,conjoined,woman,,,M1 is driving M3,drive,rating_causation,"{""Q0"":6}",[0],M3 is taking M1 somewhere,M1 is taking M3 somewhere
null,Beth is talking to Kate,,html-keyboard-response,19,114663,0.0-11.0-0.0,63043,4B,conjoined,woman,,null,W3 is talking to W1,talk1,sentence,,,,
5179,,,survey-likert-extra-labels,20,119844,0.0-11.0-2.0,63043,4B,conjoined,woman,,,W3 is talking to W1,talk1,rating_volition,"{""Q0"":0}",[0],W3 wanted to talk to W1,W1 wanted to talk to W3
2597,,,survey-likert-extra-labels,21,122444,0.0-11.0-3.0-0.0,63043,4B,conjoined,woman,,,W3 is talking to W1,talk1,rating_causation,"{""Q0"":0}",[0],W3 started a conversation with W1,W1 started a conversation with W3
null,Jane is kissing Luke,,html-keyboard-response,22,124448,0.0-12.0-0.0,63043,4B,conjoined,woman,,null,W4 is kissing M2,kiss3,sentence,,,,
2813,,,survey-likert-extra-labels,23,127262,0.0-12.0-2.0,63043,4B,conjoined,woman,,,W4 is kissing M2,kiss3,rating_volition,"{""Q0"":0}",[0],W4 wanted to kiss M2,M2 wanted to kiss W4
3230,,,survey-likert-extra-labels,24,130495,0.0-12.0-3.0-0.0,63043,4B,conjoined,woman,,,W4 is kissing M2,kiss3,rating_causation,"{""Q0"":0}",[0],W4 asked to kiss M2,M2 asked to kiss W4
null,Dave is hiring Kate,,html-keyboard-response,25,132498,0.0-13.0-0.0,63043,4B,conjoined,woman,,null,M3 is hiring W1,hire,sentence,,,,
2565,,,survey-likert-extra-labels,26,135065,0.0-13.0-2.0,63043,4B,conjoined,woman,,,M3 is hiring W1,hire,rating_volition,"{""Q0"":0}",[0],M3 is employing W1,W1 is employing M3
3343,,,survey-likert-extra-labels,27,138411,0.0-13.0-3.0-0.0,63043,4B,conjoined,woman,,,M3 is hiring W1,hire,rating_causation,"{""Q0"":6}",[0],M3 will work for W1,W1 will work for M3
null,Beth is fighting with Fred,,html-keyboard-response,28,140415,0.0-14.0-0.0,63043,4B,conjoined,woman,,null,W3 is fighting with M1,fight3,sentence,,,,
4222,,,survey-likert-extra-labels,29,144639,0.0-14.0-2.0,63043,4B,conjoined,woman,,,W3 is fighting with M1,fight3,rating_volition,"{""Q0"":6}",[0],M1 wanted to fight W3,W3 wanted to fight M1
2978,,,survey-likert-extra-labels,30,147619,0.0-14.0-3.0-0.0,63043,4B,conjoined,woman,,,W3 is fighting with M1,fight3,rating_causation,"{""Q0"":6}",[0],M1 started the fight with W3,W3 started the fight with M1
null,Dave is playing with Kate,,html-keyboard-response,31,149622,0.0-15.0-0.0,63043,4B,conjoined,woman,,null,M3 is playing with W1,play3,sentence,,,,
5340,,,survey-likert-extra-labels,32,154964,0.0-15.0-2.0,63043,4B,conjoined,woman,,,M3 is playing with W1,play3,rating_volition,"{""Q0"":6}",[0],W1 wanted to play with M3,M3 wanted to play with W1
5844,,,survey-likert-extra-labels,33,160810,0.0-15.0-3.0-0.0,63043,4B,conjoined,woman,,,M3 is playing with W1,play3,rating_causation,"{""Q0"":6}",[0],W1 asked to play with M3,M3 asked to play with W1
null,Kate is touching Dave,,html-keyboard-response,34,162814,0.0-16.0-0.0,63043,4B,conjoined,woman,,null,W1 is touching M3,touch4,sentence,,,,
3266,,,survey-likert-extra-labels,35,166082,0.0-16.0-2.0,63043,4B,conjoined,woman,,,W1 is touching M3,touch4,rating_volition,"{""Q0"":0}",[0],W1 wanted to touch M3,M3 wanted to touch W1
3750,,,survey-likert-extra-labels,36,169834,0.0-16.0-3.0-0.0,63043,4B,conjoined,woman,,,W1 is touching M3,touch4,rating_causation,"{""Q0"":0}",[0],W1 asked to touch M3,M3 asked to touch W1
null,Beth is playing with Fred,,html-keyboard-response,37,171838,0.0-17.0-0.0,63043,4B,conjoined,woman,,null,W3 is playing with M1,play4,sentence,,,,
4171,,,survey-likert-extra-labels,38,176010,0.0-17.0-1.0-0.0,63043,4B,conjoined,woman,,,W3 is playing with M1,play4,rating_causation,"{""Q0"":6}",[0],M1 asked to play with W3,W3 asked to play with M1
4159,,,survey-likert-extra-labels,39,180173,0.0-17.0-2.0,63043,4B,conjoined,woman,,,W3 is playing with M1,play4,rating_volition,"{""Q0"":6}",[0],M1 wanted to play with W3,W3 wanted to play with M1
null,Kate is arguing with Beth,,html-keyboard-response,40,182177,0.0-18.0-0.0,63043,4B,conjoined,woman,,null,W1 is arguing with W3,argue1,sentence,,,,
6030,,,survey-likert-extra-labels,41,188209,0.0-18.0-1.0-0.0,63043,4B,conjoined,woman,,,W1 is arguing with W3,argue1,rating_causation,"{""Q0"":6}",[0],W3 started an argument with W1,W1 started an argument with W3
3193,,,survey-likert-extra-labels,42,191406,0.0-18.0-2.0,63043,4B,conjoined,woman,,,W1 is arguing with W3,argue1,rating_volition,"{""Q0"":6}",[0],W3 wanted to argue with W1,W1 wanted to argue with W3
null,Kate is chasing Beth,,html-keyboard-response,43,193410,0.0-19.0-0.0,63043,4B,conjoined,woman,,null,W1 is chasing W3,chase,sentence,,,,
10996,,,survey-likert-extra-labels,44,204407,0.0-19.0-1.0-0.0,63043,4B,conjoined,woman,,,W1 is chasing W3,chase,rating_causation,"{""Q0"":6}",[0],W1 is running away from W3,W3 is running away from W1
7787,,,survey-likert-extra-labels,45,212197,0.0-19.0-2.0,63043,4B,conjoined,woman,,,W1 is chasing W3,chase,rating_volition,"{""Q0"":0}",[0],W1 is behind W3,W3 is behind W1
null,Ruth is fighting with Jane,,html-keyboard-response,46,214201,0.0-20.0-0.0,63043,4B,conjoined,woman,,null,W2 is fighting with W4,fight1,sentence,,,,
2981,,,survey-likert-extra-labels,47,217184,0.0-20.0-1.0-0.0,63043,4B,conjoined,woman,,,W2 is fighting with W4,fight1,rating_causation,"{""Q0"":6}",[0],W4 started the fight with W2,W2 started the fight with W4
5147,,,survey-likert-extra-labels,48,222334,0.0-20.0-2.0,63043,4B,conjoined,woman,,,W2 is fighting with W4,fight1,rating_volition,"{""Q0"":6}",[0],W4 wanted to fight W2,W2 wanted to fight W4
null,Dave is fighting with Kate,,html-keyboard-response,49,224338,0.0-21.0-0.0,63043,4B,conjoined,woman,,null,M3 is fighting with W1,fight4,sentence,,,,
10655,,,survey-likert-extra-labels,50,234994,0.0-21.0-2.0,63043,4B,conjoined,woman,,,M3 is fighting with W1,fight4,rating_volition,"{""Q0"":6}",[0],W1 wanted to fight M3,M3 wanted to fight W1
3229,,,survey-likert-extra-labels,51,238226,0.0-21.0-3.0-0.0,63043,4B,conjoined,woman,,,M3 is fighting with W1,fight4,rating_causation,"{""Q0"":6}",[0],W1 started the fight with M3,M3 started the fight with W1
null,Fred is touching Beth,,html-keyboard-response,52,240230,0.0-22.0-0.0,63043,4B,conjoined,woman,,null,M1 is touching W3,touch3,sentence,,,,
4660,,,survey-likert-extra-labels,53,244893,0.0-22.0-1.0-0.0,63043,4B,conjoined,woman,,,M1 is touching W3,touch3,rating_causation,"{""Q0"":0}",[0],M1 asked to touch W3,W3 asked to touch M1
6716,,,survey-likert-extra-labels,54,251611,0.0-22.0-2.0,63043,4B,conjoined,woman,,,M1 is touching W3,touch3,rating_volition,"{""Q0"":0}",[0],M1 wanted to touch W3,W3 wanted to touch M1
null,Fred is flirting with Beth,,html-keyboard-response,55,253616,0.0-23.0-0.0,63043,4B,conjoined,woman,,null,M1 is flirting with W3,flirt3,sentence,,,,
3616,,,survey-likert-extra-labels,56,257234,0.0-23.0-2.0,63043,4B,conjoined,woman,,,M1 is flirting with W3,flirt3,rating_volition,"{""Q0"":0}",[0],M1 wanted to flirt with W3,W3 wanted to flirt with M1
2757,,,survey-likert-extra-labels,57,259994,0.0-23.0-3.0-0.0,63043,4B,conjoined,woman,,,M1 is flirting with W3,flirt3,rating_causation,"{""Q0"":0}",[0],M1 started flirting with W3 first,W3 started flirting with M1 first
null,Mike is talking to Ruth,,html-keyboard-response,58,261998,0.0-24.0-0.0,63043,4B,conjoined,woman,,null,M4 is talking to W2,talk3,sentence,,,,
6651,,,survey-likert-extra-labels,59,268650,0.0-24.0-2.0,63043,4B,conjoined,woman,,,M4 is talking to W2,talk3,rating_volition,"{""Q0"":0}",[0],M4 wanted to talk to W2,W2 wanted to talk to M4
5731,,,survey-likert-extra-labels,60,274384,0.0-24.0-3.0-0.0,63043,4B,conjoined,woman,,,M4 is talking to W2,talk3,rating_causation,"{""Q0"":0}",[0],M4 started a conversation with W2,W2 started a conversation with M4
null,Dave is talking to Fred,,html-keyboard-response,61,276388,0.0-25.0-0.0,63043,4B,conjoined,woman,,null,M3 is talking to M1,talk2,sentence,,,,
5975,,,survey-likert-extra-labels,62,282365,0.0-25.0-1.0-0.0,63043,4B,conjoined,woman,,,M3 is talking to M1,talk2,rating_causation,"{""Q0"":0}",[0],M3 started a conversation with M1,M1 started a conversation with M3
2336,,,survey-likert-extra-labels,63,284704,0.0-25.0-2.0,63043,4B,conjoined,woman,,,M3 is talking to M1,talk2,rating_volition,"{""Q0"":0}",[0],M3 wanted to talk to M1,M1 wanted to talk to M3
null,Dave is kissing Fred,,html-keyboard-response,64,286708,0.0-26.0-0.0,63043,4B,conjoined,woman,,null,M3 is kissing M1,kiss2,sentence,,,,
2944,,,survey-likert-extra-labels,65,289654,0.0-26.0-1.0-0.0,63043,4B,conjoined,woman,,,M3 is kissing M1,kiss2,rating_causation,"{""Q0"":0}",[0],M3 asked to kiss M1,M1 asked to kiss M3
2446,,,survey-likert-extra-labels,66,292102,0.0-26.0-2.0,63043,4B,conjoined,woman,,,M3 is kissing M1,kiss2,rating_volition,"{""Q0"":0}",[0],M3 wanted to kiss M1,M1 wanted to kiss M3
null,Beth is feeding Fred,,html-keyboard-response,67,294106,0.0-27.0-0.0,63043,4B,conjoined,woman,,null,W3 is feeding M1,feed,sentence,,,,
7161,,,survey-likert-extra-labels,68,301269,0.0-27.0-1.0-0.0,63043,4B,conjoined,woman,,,W3 is feeding M1,feed,rating_causation,"{""Q0"":6}",[0],W3 is eating M1's food,M1 is eating W3's food
5901,,,survey-likert-extra-labels,69,307173,0.0-27.0-2.0,63043,4B,conjoined,woman,,,W3 is feeding M1,feed,rating_volition,"{""Q0"":0}",[0],W3 is giving M1 food,M1 is giving W3 food
null,Fred is marrying Beth,,html-keyboard-response,70,309176,0.0-28.0-0.0,63043,4B,conjoined,woman,,null,M1 is marrying W3,marry4,sentence,,,,
5322,,,survey-likert-extra-labels,71,314500,0.0-28.0-1.0-0.0,63043,4B,conjoined,woman,,,M1 is marrying W3,marry4,rating_causation,"{""Q0"":0}",[0],M1 asked to marry W3,W3 asked to marry M1
9413,,,survey-likert-extra-labels,72,323916,0.0-28.0-2.0,63043,4B,conjoined,woman,,,M1 is marrying W3,marry4,rating_volition,"{""Q0"":0}",[0],M1 wanted to marry W3,W3 wanted to marry M1
null,Kate is flirting with Dave,,html-keyboard-response,73,325920,0.0-29.0-0.0,63043,4B,conjoined,woman,,null,W1 is flirting with M3,flirt4,sentence,,,,
5781,,,survey-likert-extra-labels,74,331702,0.0-29.0-1.0-0.0,63043,4B,conjoined,woman,,,W1 is flirting with M3,flirt4,rating_causation,"{""Q0"":0}",[0],W1 started flirting with M3 first,M3 started flirting with W1 first
2622,,,survey-likert-extra-labels,75,334326,0.0-29.0-2.0,63043,4B,conjoined,woman,,,W1 is flirting with M3,flirt4,rating_volition,"{""Q0"":0}",[0],W1 wanted to flirt with M3,M3 wanted to flirt with W1
null,Jane is touching Ruth,,html-keyboard-response,76,336330,0.0-30.0-0.0,63043,4B,conjoined,woman,,null,W4 is touching W2,touch1,sentence,,,,
3325,,,survey-likert-extra-labels,77,339657,0.0-30.0-1.0-0.0,63043,4B,conjoined,woman,,,W4 is touching W2,touch1,rating_causation,"{""Q0"":0}",[0],W4 asked to touch W2,W2 asked to touch W4
2195,,,survey-likert-extra-labels,78,341856,0.0-30.0-2.0,63043,4B,conjoined,woman,,,W4 is touching W2,touch1,rating_volition,"{""Q0"":0}",[0],W4 wanted to touch W2,W2 wanted to touch W4
null,Beth is dancing with Kate,,html-keyboard-response,79,343860,0.0-31.0-0.0,63043,4B,conjoined,woman,,null,W3 is dancing with W1,dance1,sentence,,,,
2515,,,survey-likert-extra-labels,80,346376,0.0-31.0-2.0,63043,4B,conjoined,woman,,,W3 is dancing with W1,dance1,rating_volition,"{""Q0"":0}",[0],W3 wanted to dance with W1,W1 wanted to dance with W3
4041,,,survey-likert-extra-labels,81,350420,0.0-31.0-3.0-0.0,63043,4B,conjoined,woman,,,W3 is dancing with W1,dance1,rating_causation,"{""Q0"":0}",[0],W3 asked W1 to dance,W1 asked W3 to dance
null,Mike is touching Luke,,html-keyboard-response,82,352423,0.0-32.0-0.0,63043,4B,conjoined,woman,,null,M4 is touching M2,touch2,sentence,,,,
2726,,,survey-likert-extra-labels,83,355151,0.0-32.0-1.0-0.0,63043,4B,conjoined,woman,,,M4 is touching M2,touch2,rating_causation,"{""Q0"":0}",[0],M4 asked to touch M2,M2 asked to touch M4
1800,,,survey-likert-extra-labels,84,356954,0.0-32.0-2.0,63043,4B,conjoined,woman,,,M4 is touching M2,touch2,rating_volition,"{""Q0"":0}",[0],M4 wanted to touch M2,M2 wanted to touch M4
null,Luke is playing with Mike,,html-keyboard-response,85,358957,0.0-33.0-0.0,63043,4B,conjoined,woman,,null,M2 is playing with M4,play2,sentence,,,,
4529,,,survey-likert-extra-labels,86,363488,0.0-33.0-2.0,63043,4B,conjoined,woman,,,M2 is playing with M4,play2,rating_volition,"{""Q0"":6}",[0],M4 wanted to play with M2,M2 wanted to play with M4
2663,,,survey-likert-extra-labels,87,366153,0.0-33.0-3.0-0.0,63043,4B,conjoined,woman,,,M2 is playing with M4,play2,rating_causation,"{""Q0"":6}",[0],M4 asked to play with M2,M2 asked to play with M4
null,Mike is kissing Ruth,,html-keyboard-response,88,368156,0.0-34.0-0.0,63043,4B,conjoined,woman,,null,M4 is kissing W2,kiss4,sentence,,,,
2254,,,survey-likert-extra-labels,89,370412,0.0-34.0-2.0,63043,4B,conjoined,woman,,,M4 is kissing W2,kiss4,rating_volition,"{""Q0"":0}",[0],M4 wanted to kiss W2,W2 wanted to kiss M4
2149,,,survey-likert-extra-labels,90,372563,0.0-34.0-3.0-0.0,63043,4B,conjoined,woman,,,M4 is kissing W2,kiss4,rating_causation,"{""Q0"":0}",[0],M4 asked to kiss W2,W2 asked to kiss M4
null,Luke is arguing with Jane,,html-keyboard-response,91,374567,0.0-35.0-0.0,63043,4B,conjoined,woman,,null,M2 is arguing with W4,argue4,sentence,,,,
6639,,,survey-likert-extra-labels,92,381207,0.0-35.0-1.0-0.0,63043,4B,conjoined,woman,,,M2 is arguing with W4,argue4,rating_causation,"{""Q0"":6}",[0],W4 started an argument with M2,M2 started an argument with W4
4176,,,survey-likert-extra-labels,93,385386,0.0-35.0-2.0,63043,4B,conjoined,woman,,,M2 is arguing with W4,argue4,rating_volition,"{""Q0"":6}",[0],W4 wanted to argue with M2,M2 wanted to argue with W4
null,Jane is flirting with Ruth,,html-keyboard-response,94,387390,0.0-36.0-0.0,63043,4B,conjoined,woman,,null,W4 is flirting with W2,flirt1,sentence,,,,
6172,,,survey-likert-extra-labels,95,393564,0.0-36.0-2.0,63043,4B,conjoined,woman,,,W4 is flirting with W2,flirt1,rating_volition,"{""Q0"":0}",[0],W4 wanted to flirt with W2,W2 wanted to flirt with W4
6226,,,survey-likert-extra-labels,96,399794,0.0-36.0-3.0-0.0,63043,4B,conjoined,woman,,,W4 is flirting with W2,flirt1,rating_causation,"{""Q0"":0}",[0],W4 started flirting with W2 first,W2 started flirting with W4 first
null,Mike is marrying Luke,,html-keyboard-response,97,401797,0.0-37.0-0.0,63043,4B,conjoined,woman,,null,M4 is marrying M2,marry2,sentence,,,,
9543,,,survey-likert-extra-labels,98,411342,0.0-37.0-1.0-0.0,63043,4B,conjoined,woman,,,M4 is marrying M2,marry2,rating_causation,"{""Q0"":3}",[0],M4 asked to marry M2,M2 asked to marry M4
5047,,,survey-likert-extra-labels,99,416394,0.0-37.0-2.0,63043,4B,conjoined,woman,,,M4 is marrying M2,marry2,rating_volition,"{""Q0"":0}",[0],M4 wanted to marry M2,M2 wanted to marry M4
null,Mike is dancing with Ruth,,html-keyboard-response,100,418397,0.0-38.0-0.0,63043,4B,conjoined,woman,,null,M4 is dancing with W2,dance3,sentence,,,,
11441,,,survey-likert-extra-labels,101,429840,0.0-38.0-1.0-0.0,63043,4B,conjoined,woman,,,M4 is dancing with W2,dance3,rating_causation,"{""Q0"":3}",[0],M4 asked W2 to dance,W2 asked M4 to dance
8177,,,survey-likert-extra-labels,102,438019,0.0-38.0-2.0,63043,4B,conjoined,woman,,,M4 is dancing with W2,dance3,rating_volition,"{""Q0"":0}",[0],M4 wanted to dance with W2,W2 wanted to dance with M4
null,Jane is dancing with Luke,,html-keyboard-response,103,440022,0.0-39.0-0.0,63043,4B,conjoined,woman,,null,W4 is dancing with M2,dance4,sentence,,,,
8492,,,survey-likert-extra-labels,104,448515,0.0-39.0-1.0-0.0,63043,4B,conjoined,woman,,,W4 is dancing with M2,dance4,rating_causation,"{""Q0"":2}",[0],W4 asked M2 to dance,M2 asked W4 to dance
3754,,,survey-likert-extra-labels,105,452272,0.0-39.0-2.0,63043,4B,conjoined,woman,,,W4 is dancing with M2,dance4,rating_volition,"{""Q0"":0}",[0],W4 wanted to dance with M2,M2 wanted to dance with W4
null,Luke is reminding Jane,,html-keyboard-response,106,454276,0.0-40.0-0.0,63043,4B,conjoined,woman,,null,M2 is reminding W4,remind,sentence,,,,
5243,,,survey-likert-extra-labels,107,459522,0.0-40.0-2.0,63043,4B,conjoined,woman,,,M2 is reminding W4,remind,rating_volition,"{""Q0"":0}",[0],M2 is telling W4 again,W4 is telling M2 again
15866,,,survey-likert-extra-labels,108,475390,0.0-40.0-3.0-0.0,63043,4B,conjoined,woman,,,M2 is reminding W4,remind,rating_causation,"{""Q0"":3}",[0],M2 is remembering,W4 is remembering
null,Fred is shouting at Dave,,html-keyboard-response,109,477393,0.0-41.0-0.0,63043,4B,conjoined,woman,,null,M1 is shouting at M3,shout2,sentence,,,,
5921,,,survey-likert-extra-labels,110,483315,0.0-41.0-2.0,63043,4B,conjoined,woman,,,M1 is shouting at M3,shout2,rating_volition,"{""Q0"":6}",[0],M3 wanted to shout at M1,M1 wanted to shout at M3
6496,,,survey-likert-extra-labels,111,489813,0.0-41.0-3.0-0.0,63043,4B,conjoined,woman,,,M1 is shouting at M3,shout2,rating_causation,"{""Q0"":3}",[0],M3 shouted at M1 first,M1 shouted at M3 first
null,Beth is kissing Kate,,html-keyboard-response,112,491817,0.0-42.0-0.0,63043,4B,conjoined,woman,,null,W3 is kissing W1,kiss1,sentence,,,,
7824,,,survey-likert-extra-labels,113,499643,0.0-42.0-2.0,63043,4B,conjoined,woman,,,W3 is kissing W1,kiss1,rating_volition,"{""Q0"":0}",[0],W3 wanted to kiss W1,W1 wanted to kiss W3
4414,,,survey-likert-extra-labels,114,504060,0.0-42.0-3.0-0.0,63043,4B,conjoined,woman,,,W3 is kissing W1,kiss1,rating_causation,"{""Q0"":3}",[0],W3 asked to kiss W1,W1 asked to kiss W3
null,Ruth is arguing with Mike,,html-keyboard-response,115,506064,0.0-43.0-0.0,63043,4B,conjoined,woman,,null,W2 is arguing with M4,argue3,sentence,,,,
5835,,,survey-likert-extra-labels,116,511901,0.0-43.0-2.0,63043,4B,conjoined,woman,,,W2 is arguing with M4,argue3,rating_volition,"{""Q0"":6}",[0],M4 wanted to argue with W2,W2 wanted to argue with M4
9967,,,survey-likert-extra-labels,117,521870,0.0-43.0-3.0-0.0,63043,4B,conjoined,woman,,,W2 is arguing with M4,argue3,rating_causation,"{""Q0"":3}",[0],M4 started an argument with W2,W2 started an argument with M4
null,Kate is marrying Dave,,html-keyboard-response,118,523874,0.0-44.0-0.0,63043,4B,conjoined,woman,,null,W1 is marrying M3,marry3,sentence,,,,
5712,,,survey-likert-extra-labels,119,529588,0.0-44.0-2.0,63043,4B,conjoined,woman,,,W1 is marrying M3,marry3,rating_volition,"{""Q0"":3}",[0],W1 wanted to marry M3,M3 wanted to marry W1
3301,,,survey-likert-extra-labels,120,532893,0.0-44.0-3.0-0.0,63043,4B,conjoined,woman,,,W1 is marrying M3,marry3,rating_causation,"{""Q0"":0}",[0],W1 asked to marry M3,M3 asked to marry W1
null,Jane is talking to Luke,,html-keyboard-response,121,534897,0.0-45.0-0.0,63043,4B,conjoined,woman,,null,W4 is talking to M2,talk4,sentence,,,,
6619,,,survey-likert-extra-labels,122,541518,0.0-45.0-2.0,63043,4B,conjoined,woman,,,W4 is talking to M2,talk4,rating_volition,"{""Q0"":0}",[0],W4 wanted to talk to M2,M2 wanted to talk to W4
3871,,,survey-likert-extra-labels,123,545391,0.0-45.0-3.0-0.0,63043,4B,conjoined,woman,,,W4 is talking to M2,talk4,rating_causation,"{""Q0"":3}",[0],W4 started a conversation with M2,M2 started a conversation with W4
null,Luke is posing for Mike,,html-keyboard-response,124,547395,0.0-46.0-0.0,63043,4B,conjoined,woman,,null,M2 is posing for M4,pose,sentence,,,,
6051,,,survey-likert-extra-labels,125,553448,0.0-46.0-2.0,63043,4B,conjoined,woman,,,M2 is posing for M4,pose,rating_volition,"{""Q0"":0}",[0],M2 is modelling for M4,M4 is modelling for M2
6833,,,survey-likert-extra-labels,126,560284,0.0-46.0-3.0-0.0,63043,4B,conjoined,woman,,,M2 is posing for M4,pose,rating_causation,"{""Q0"":6}",[0],M2 is photographing M4,M4 is photographing M2
null,Ruth is playing with Jane,,html-keyboard-response,127,562288,0.0-47.0-0.0,63043,4B,conjoined,woman,,null,W2 is playing with W4,play1,sentence,,,,
8888,,,survey-likert-extra-labels,128,571177,0.0-47.0-2.0,63043,4B,conjoined,woman,,,W2 is playing with W4,play1,rating_volition,"{""Q0"":6}",[0],W4 wanted to play with W2,W2 wanted to play with W4
3904,,,survey-likert-extra-labels,129,575083,0.0-47.0-3.0-0.0,63043,4B,conjoined,woman,,,W2 is playing with W4,play1,rating_causation,"{""Q0"":3}",[0],W4 asked to play with W2,W2 asked to play with W4
null,Luke is fighting with Mike,,html-keyboard-response,130,577087,0.0-48.0-0.0,63043,4B,conjoined,woman,,null,M2 is fighting with M4,fight2,sentence,,,,
4838,,,survey-likert-extra-labels,131,581927,0.0-48.0-2.0,63043,4B,conjoined,woman,,,M2 is fighting with M4,fight2,rating_volition,"{""Q0"":6}",[0],M4 wanted to fight M2,M2 wanted to fight M4
5186,,,survey-likert-extra-labels,132,587115,0.0-48.0-3.0-0.0,63043,4B,conjoined,woman,,,M2 is fighting with M4,fight2,rating_causation,"{""Q0"":3}",[0],M4 started the fight with M2,M2 started the fight with M4
null,Ruth is teaching Mike,,html-keyboard-response,133,589118,0.0-49.0-0.0,63043,4B,conjoined,woman,,null,W2 is teaching M4,teach,sentence,,,,
7031,,,survey-likert-extra-labels,134,596152,0.0-49.0-2.0,63043,4B,conjoined,woman,,,W2 is teaching M4,teach,rating_volition,"{""Q0"":0}",[0],W2 is educating M4,M4 is educating W2
3460,,,survey-likert-extra-labels,135,599615,0.0-49.0-3.0-0.0,63043,4B,conjoined,woman,,,W2 is teaching M4,teach,rating_causation,"{""Q0"":6}",[0],W2 is learning from M4,M4 is learning from W2
null,Dave is dancing with Fred,,html-keyboard-response,136,601619,0.0-50.0-0.0,63043,4B,conjoined,woman,,null,M3 is dancing with M1,dance2,sentence,,,,
5789,,,survey-likert-extra-labels,137,607410,0.0-50.0-1.0-0.0,63043,4B,conjoined,woman,,,M3 is dancing with M1,dance2,rating_causation,"{""Q0"":3}",[0],M3 asked M1 to dance,M1 asked M3 to dance
4032,,,survey-likert-extra-labels,138,611444,0.0-50.0-2.0,63043,4B,conjoined,woman,,,M3 is dancing with M1,dance2,rating_volition,"{""Q0"":0}",[0],M3 wanted to dance with M1,M1 wanted to dance with M3
null,Fred is arguing with Dave,,html-keyboard-response,139,613448,0.0-51.0-0.0,63043,4B,conjoined,woman,,null,M1 is arguing with M3,argue2,sentence,,,,
5308,,,survey-likert-extra-labels,140,618846,0.0-51.0-2.0,63043,4B,conjoined,woman,,,M1 is arguing with M3,argue2,rating_volition,"{""Q0"":6}",[0],M3 wanted to argue with M1,M1 wanted to argue with M3
3075,,,survey-likert-extra-labels,141,621924,0.0-51.0-3.0-0.0,63043,4B,conjoined,woman,,,M1 is arguing with M3,argue2,rating_causation,"{""Q0"":3}",[0],M3 started an argument with M1,M1 started an argument with M3
null,Mike is flirting with Luke,,html-keyboard-response,142,623927,0.0-52.0-0.0,63043,4B,conjoined,woman,,null,M4 is flirting with M2,flirt2,sentence,,,,
5699,,,survey-likert-extra-labels,143,629628,0.0-52.0-2.0,63043,4B,conjoined,woman,,,M4 is flirting with M2,flirt2,rating_volition,"{""Q0"":0}",[0],M4 wanted to flirt with M2,M2 wanted to flirt with M4
4088,,,survey-likert-extra-labels,144,633719,0.0-52.0-3.0-0.0,63043,4B,conjoined,woman,,,M4 is flirting with M2,flirt2,rating_causation,"{""Q0"":0}",[0],M4 started flirting with M2 first,M2 started flirting with M4 first
null,Kate is shouting at Beth,,html-keyboard-response,145,635724,0.0-53.0-0.0,63043,4B,conjoined,woman,,null,W1 is shouting at W3,shout1,sentence,,,,
8189,,,survey-likert-extra-labels,146,643915,0.0-53.0-1.0-0.0,63043,4B,conjoined,woman,,,W1 is shouting at W3,shout1,rating_causation,"{""Q0"":3}",[0],W3 shouted at W1 first,W1 shouted at W3 first
2931,,,survey-likert-extra-labels,147,646848,0.0-53.0-2.0,63043,4B,conjoined,woman,,,W1 is shouting at W3,shout1,rating_volition,"{""Q0"":6}",[0],W3 wanted to shout at W1,W1 wanted to shout at W3
null,Luke is shouting at Jane,,html-keyboard-response,148,648852,0.0-54.0-0.0,63043,4B,conjoined,woman,,null,M2 is shouting at W4,shout3,sentence,,,,
17985,,,survey-likert-extra-labels,149,666840,0.0-54.0-1.0-0.0,63043,4B,conjoined,woman,,,M2 is shouting at W4,shout3,rating_causation,"{""Q0"":3}",[0],W4 shouted at M2 first,M2 shouted at W4 first
3239,,,survey-likert-extra-labels,150,670082,0.0-54.0-2.0,63043,4B,conjoined,woman,,,M2 is shouting at W4,shout3,rating_volition,"{""Q0"":6}",[0],W4 wanted to shout at M2,M2 wanted to shout at W4
1261,<p>Thank you for completing that task.</p><p>The final part of this session is a short questionnaire.</p><p>Press Continue.</p>,0,html-button-response,151,671345,0.0-55.0,63043,4B,conjoined,woman,,,,,,,,,
36105,,,survey-text,152,708477,0.0-56.0,63043,4B,conjoined,woman,,,,,demographics,"{""Q0"":""47"",""Q1"":""english"",""Q2"":""English"",""Q3"":""uk"",""Q4"":""british"",""Q5"":""asian and white"",""Q6"":""female""}",,,
3168,<p>Have you lived in the UK for the last 5 years or more?</p>,0,html-button-response,153,711646,0.0-57.0,63043,4B,conjoined,woman,,,,,fiveyears,,,,
14685,,,survey-text,154,727342,0.0-58.0,63043,4B,conjoined,woman,,,,,worker_id,"{""Q0"":""5c6d6d3481e1d50001627409""}",,,
7896,,,external-html,155,735387,0.0-59.0,63043,4B,conjoined,woman,debrief.html,,,,,,,,
