"rt","stimulus","button_pressed","trial_type","trial_index","time_elapsed","internal_node_id","subject","list","condition","ppt_gender","url","key_press","sentence_type","verb","test_part","responses","question_order","left_part","right_part"
"2201.0000000000005","Welcome to the experiment. Press Continue to begin.","0","html-button-response","0","2207","0.0-0.0","73134","2B","conjoined","woman","","","","","","","","",""
"29011","","","external-html","1","32268","0.0-1.0","73134","2B","conjoined","woman","consent.html","","","","","","","",""
"16046","<p>Welcome.</p><p>In this experiment we will ask you to imagine some situations.</p><p>Each trial starts with a description of an event.</p><p>Then you will see alternative descriptions of that event, and you will rate on a scale how best they match the original description.</p><p>You will give your answer by clicking a button on a rating scale.</p><p>To do this task, you will have to use your imagination to visualise these events.</p><br><p>Ready?</p>","0","html-button-response","2","48314","0.0-2.0","73134","2B","conjoined","woman","","","","","","","","",""
"2934","<p>Before the experiment starts, you will watch an example trial. Press 'Continue'.</p>","0","html-button-response","3","52250","0.0-3.0","73134","2B","conjoined","woman","","","","","","","","",""
"null","The police officer is arresting the robber","","html-keyboard-response","4","55254","0.0-4.0","73134","2B","conjoined","woman","","null","","","","","","",""
"17411","<img src='img/Example-trial.jpg' style='height:550px;''></img>","0","html-button-response","5","72666","0.0-5.0","73134","2B","conjoined","woman","","","","","","","","",""
"3633","<p>Ready to start the experiment?</p><br><p><strong>Remember to give an answer by clicking a button on the rating scale.</strong></p><p>Press 'Continue' to begin.</p>","0","html-button-response","6","77302","0.0-6.0","73134","2B","conjoined","woman","","","","","","","","",""
"null","Dave and Fred are arguing with each other","","html-keyboard-response","7","80306","0.0-7.0-0.0","73134","2B","conjoined","woman","","null","M3 and M1 are arguing with each other","argue2","sentence","","","",""
"5657","","","survey-likert-extra-labels","8","85966","0.0-7.0-2.0","73134","2B","conjoined","woman","","","M3 and M1 are arguing with each other","argue2","rating_volition","{""Q0"":3}","[0]","M3 wanted to argue with M1","M1 wanted to argue with M3"
"3801","","","survey-likert-extra-labels","9","89770","0.0-7.0-3.0-0.0","73134","2B","conjoined","woman","","","M3 and M1 are arguing with each other","argue2","rating_causation","{""Q0"":3}","[0]","M3 started an argument with M1","M1 started an argument with M3"
"null","Luke and Jane are talking to each other","","html-keyboard-response","10","91772","0.0-8.0-0.0","73134","2B","conjoined","woman","","null","M2 and W4 are talking to each other","talk4","sentence","","","",""
"3885.9999999999854","","","survey-likert-extra-labels","11","95660","0.0-8.0-2.0","73134","2B","conjoined","woman","","","M2 and W4 are talking to each other","talk4","rating_volition","{""Q0"":3}","[0]","W4 wanted to talk to M2","M2 wanted to talk to W4"
"3358.0000000000146","","","survey-likert-extra-labels","12","99021","0.0-8.0-3.0-0.0","73134","2B","conjoined","woman","","","M2 and W4 are talking to each other","talk4","rating_causation","{""Q0"":3}","[0]","W4 started a conversation with M2","M2 started a conversation with W4"
"null","Mike and Ruth are shouting at each other","","html-keyboard-response","13","101027","0.0-9.0-0.0","73134","2B","conjoined","woman","","null","M4 and W2 are shouting at each other","shout4","sentence","","","",""
"3159","","","survey-likert-extra-labels","14","104188","0.0-9.0-2.0","73134","2B","conjoined","woman","","","M4 and W2 are shouting at each other","shout4","rating_volition","{""Q0"":3}","[0]","M4 wanted to shout at W2","W2 wanted to shout at M4"
"2775","","","survey-likert-extra-labels","15","106967","0.0-9.0-3.0-0.0","73134","2B","conjoined","woman","","","M4 and W2 are shouting at each other","shout4","rating_causation","{""Q0"":3}","[0]","M4 shouted at W2 first","W2 shouted at M4 first"
"null","Fred and Beth are fighting each other","","html-keyboard-response","16","108970","0.0-10.0-0.0","73134","2B","conjoined","woman","","null","M1 and W3 are fighting each other","fight3","sentence","","","",""
"1787.0000000000146","","","survey-likert-extra-labels","17","110759","0.0-10.0-2.0","73134","2B","conjoined","woman","","","M1 and W3 are fighting each other","fight3","rating_volition","{""Q0"":3}","[0]","M1 wanted to fight W3","W3 wanted to fight M1"
"2301","","","survey-likert-extra-labels","18","113062","0.0-10.0-3.0-0.0","73134","2B","conjoined","woman","","","M1 and W3 are fighting each other","fight3","rating_causation","{""Q0"":3}","[0]","M1 started the fight with W3","W3 started the fight with M1"
"null","Kate and Dave are fighting each other","","html-keyboard-response","19","115065","0.0-11.0-0.0","73134","2B","conjoined","woman","","null","W1 and M3 are fighting each other","fight4","sentence","","","",""
"2729.0000000000146","","","survey-likert-extra-labels","20","117798","0.0-11.0-1.0-0.0","73134","2B","conjoined","woman","","","W1 and M3 are fighting each other","fight4","rating_causation","{""Q0"":3}","[0]","W1 started the fight with M3","M3 started the fight with W1"
"2023.9999999999854","","","survey-likert-extra-labels","21","119825","0.0-11.0-2.0","73134","2B","conjoined","woman","","","W1 and M3 are fighting each other","fight4","rating_volition","{""Q0"":3}","[0]","W1 wanted to fight M3","M3 wanted to fight W1"
"null","Fred and Dave are kissing each other","","html-keyboard-response","22","121828","0.0-12.0-0.0","73134","2B","conjoined","woman","","null","M1 and M3 are kissing each other","kiss2","sentence","","","",""
"3022","","","survey-likert-extra-labels","23","124852","0.0-12.0-2.0","73134","2B","conjoined","woman","","","M1 and M3 are kissing each other","kiss2","rating_volition","{""Q0"":3}","[0]","M3 wanted to kiss M1","M1 wanted to kiss M3"
"3272","","","survey-likert-extra-labels","24","128127","0.0-12.0-3.0-0.0","73134","2B","conjoined","woman","","","M1 and M3 are kissing each other","kiss2","rating_causation","{""Q0"":3}","[0]","M3 asked to kiss M1","M1 asked to kiss M3"
"null","Fred and Beth are playing with each other","","html-keyboard-response","25","130130","0.0-13.0-0.0","73134","2B","conjoined","woman","","null","M1 and W3 are playing with each other","play4","sentence","","","",""
"1659","","","survey-likert-extra-labels","26","131792","0.0-13.0-1.0-0.0","73134","2B","conjoined","woman","","","M1 and W3 are playing with each other","play4","rating_causation","{""Q0"":3}","[0]","M1 asked to play with W3","W3 asked to play with M1"
"2427","","","survey-likert-extra-labels","27","134222","0.0-13.0-2.0","73134","2B","conjoined","woman","","","M1 and W3 are playing with each other","play4","rating_volition","{""Q0"":3}","[0]","M1 wanted to play with W3","W3 wanted to play with M1"
"null","Ruth is carrying Jane","","html-keyboard-response","28","136225","0.0-14.0-0.0","73134","2B","conjoined","woman","","null","W2 is carrying W4","carry","sentence","","","",""
"9348","","","survey-likert-extra-labels","29","145575","0.0-14.0-1.0-0.0","73134","2B","conjoined","woman","","","W2 is carrying W4","carry","rating_causation","{""Q0"":6}","[0]","W2 is being moved by W4","W4 is being moved by W2"
"5823","","","survey-likert-extra-labels","30","151401","0.0-14.0-2.0","73134","2B","conjoined","woman","","","W2 is carrying W4","carry","rating_volition","{""Q0"":0}","[0]","W2 is transporting W4","W4 is transporting W2"
"null","Dave is hiring Kate","","html-keyboard-response","31","153404","0.0-15.0-0.0","73134","2B","conjoined","woman","","null","M3 is hiring W1","hire","sentence","","","",""
"4200","","","survey-likert-extra-labels","32","157606","0.0-15.0-1.0-0.0","73134","2B","conjoined","woman","","","M3 is hiring W1","hire","rating_causation","{""Q0"":6}","[0]","M3 will work for W1","W1 will work for M3"
"5126","","","survey-likert-extra-labels","33","162735","0.0-15.0-2.0","73134","2B","conjoined","woman","","","M3 is hiring W1","hire","rating_volition","{""Q0"":0}","[0]","M3 is employing W1","W1 is employing M3"
"null","Luke is posing for Mike","","html-keyboard-response","34","164739","0.0-16.0-0.0","73134","2B","conjoined","woman","","null","M2 is posing for M4","pose","sentence","","","",""
"7491","","","survey-likert-extra-labels","35","172232","0.0-16.0-2.0","73134","2B","conjoined","woman","","","M2 is posing for M4","pose","rating_volition","{""Q0"":1}","[0]","M2 is modelling for M4","M4 is modelling for M2"
"13928","","","survey-likert-extra-labels","36","186163","0.0-16.0-3.0-0.0","73134","2B","conjoined","woman","","","M2 is posing for M4","pose","rating_causation","{""Q0"":2}","[0]","M2 is photographing M4","M4 is photographing M2"
"null","Fred and Dave are talking to each other","","html-keyboard-response","37","188164","0.0-17.0-0.0","73134","2B","conjoined","woman","","null","M1 and M3 are talking to each other","talk2","sentence","","","",""
"4400","","","survey-likert-extra-labels","38","192567","0.0-17.0-1.0-0.0","73134","2B","conjoined","woman","","","M1 and M3 are talking to each other","talk2","rating_causation","{""Q0"":3}","[0]","M3 started a conversation with M1","M1 started a conversation with M3"
"2252","","","survey-likert-extra-labels","39","194821","0.0-17.0-2.0","73134","2B","conjoined","woman","","","M1 and M3 are talking to each other","talk2","rating_volition","{""Q0"":3}","[0]","M3 wanted to talk to M1","M1 wanted to talk to M3"
"null","Beth and Kate are arguing with each other","","html-keyboard-response","40","196824","0.0-18.0-0.0","73134","2B","conjoined","woman","","null","W3 and W1 are arguing with each other","argue1","sentence","","","",""
"2564","","","survey-likert-extra-labels","41","199390","0.0-18.0-1.0-0.0","73134","2B","conjoined","woman","","","W3 and W1 are arguing with each other","argue1","rating_causation","{""Q0"":3}","[0]","W3 started an argument with W1","W1 started an argument with W3"
"2235","","","survey-likert-extra-labels","42","201628","0.0-18.0-2.0","73134","2B","conjoined","woman","","","W3 and W1 are arguing with each other","argue1","rating_volition","{""Q0"":3}","[0]","W3 wanted to argue with W1","W1 wanted to argue with W3"
"null","Beth and Fred are touching each other","","html-keyboard-response","43","203631","0.0-19.0-0.0","73134","2B","conjoined","woman","","null","W3 and M1 are touching each other","touch3","sentence","","","",""
"2634","","","survey-likert-extra-labels","44","206267","0.0-19.0-1.0-0.0","73134","2B","conjoined","woman","","","W3 and M1 are touching each other","touch3","rating_causation","{""Q0"":3}","[0]","M1 asked to touch W3","W3 asked to touch M1"
"1705.000000000029","","","survey-likert-extra-labels","45","207974","0.0-19.0-2.0","73134","2B","conjoined","woman","","","W3 and M1 are touching each other","touch3","rating_volition","{""Q0"":3}","[0]","M1 wanted to touch W3","W3 wanted to touch M1"
"null","Ruth and Mike are kissing each other","","html-keyboard-response","46","209976","0.0-20.0-0.0","73134","2B","conjoined","woman","","null","W2 and M4 are kissing each other","kiss4","sentence","","","",""
"1619","","","survey-likert-extra-labels","47","211597","0.0-20.0-1.0-0.0","73134","2B","conjoined","woman","","","W2 and M4 are kissing each other","kiss4","rating_causation","{""Q0"":3}","[0]","M4 asked to kiss W2","W2 asked to kiss M4"
"1374.000000000029","","","survey-likert-extra-labels","48","212974","0.0-20.0-2.0","73134","2B","conjoined","woman","","","W2 and M4 are kissing each other","kiss4","rating_volition","{""Q0"":3}","[0]","M4 wanted to kiss W2","W2 wanted to kiss M4"
"null","Kate is chasing Beth","","html-keyboard-response","49","214977","0.0-21.0-0.0","73134","2B","conjoined","woman","","null","W1 is chasing W3","chase","sentence","","","",""
"7118","","","survey-likert-extra-labels","50","222097","0.0-21.0-1.0-0.0","73134","2B","conjoined","woman","","","W1 is chasing W3","chase","rating_causation","{""Q0"":5}","[0]","W1 is running away from W3","W3 is running away from W1"
"6668","","","survey-likert-extra-labels","51","228767","0.0-21.0-2.0","73134","2B","conjoined","woman","","","W1 is chasing W3","chase","rating_volition","{""Q0"":0}","[0]","W1 is behind W3","W3 is behind W1"
"null","Ruth and Jane are flirting with each other","","html-keyboard-response","52","230771","0.0-22.0-0.0","73134","2B","conjoined","woman","","null","W2 and W4 are flirting with each other","flirt1","sentence","","","",""
"3204","","","survey-likert-extra-labels","53","233977","0.0-22.0-2.0","73134","2B","conjoined","woman","","","W2 and W4 are flirting with each other","flirt1","rating_volition","{""Q0"":3}","[0]","W4 wanted to flirt with W2","W2 wanted to flirt with W4"
"1631","","","survey-likert-extra-labels","54","235611","0.0-22.0-3.0-0.0","73134","2B","conjoined","woman","","","W2 and W4 are flirting with each other","flirt1","rating_causation","{""Q0"":3}","[0]","W4 started flirting with W2 first","W2 started flirting with W4 first"
"null","Ruth is teaching Mike","","html-keyboard-response","55","237614","0.0-23.0-0.0","73134","2B","conjoined","woman","","null","W2 is teaching M4","teach","sentence","","","",""
"4766","","","survey-likert-extra-labels","56","242382","0.0-23.0-1.0-0.0","73134","2B","conjoined","woman","","","W2 is teaching M4","teach","rating_causation","{""Q0"":6}","[0]","W2 is learning from M4","M4 is learning from W2"
"6232","","","survey-likert-extra-labels","57","248616","0.0-23.0-2.0","73134","2B","conjoined","woman","","","W2 is teaching M4","teach","rating_volition","{""Q0"":0}","[0]","W2 is educating M4","M4 is educating W2"
"null","Dave and Kate are touching each other","","html-keyboard-response","58","250618","0.0-24.0-0.0","73134","2B","conjoined","woman","","null","M3 and W1 are touching each other","touch4","sentence","","","",""
"2100","","","survey-likert-extra-labels","59","252720","0.0-24.0-1.0-0.0","73134","2B","conjoined","woman","","","M3 and W1 are touching each other","touch4","rating_causation","{""Q0"":3}","[0]","W1 asked to touch M3","M3 asked to touch W1"
"1652","","","survey-likert-extra-labels","60","254374","0.0-24.0-2.0","73134","2B","conjoined","woman","","","M3 and W1 are touching each other","touch4","rating_volition","{""Q0"":3}","[0]","W1 wanted to touch M3","M3 wanted to touch W1"
"null","Beth is feeding Fred","","html-keyboard-response","61","256377","0.0-25.0-0.0","73134","2B","conjoined","woman","","null","W3 is feeding M1","feed","sentence","","","",""
"5192","","","survey-likert-extra-labels","62","261571","0.0-25.0-1.0-0.0","73134","2B","conjoined","woman","","","W3 is feeding M1","feed","rating_causation","{""Q0"":5}","[0]","W3 is eating M1's food","M1 is eating W3's food"
"6408","","","survey-likert-extra-labels","63","267982","0.0-25.0-2.0","73134","2B","conjoined","woman","","","W3 is feeding M1","feed","rating_volition","{""Q0"":0}","[0]","W3 is giving M1 food","M1 is giving W3 food"
"null","Jane and Ruth are playing with each other","","html-keyboard-response","64","269985","0.0-26.0-0.0","73134","2B","conjoined","woman","","null","W4 and W2 are playing with each other","play1","sentence","","","",""
"2194","","","survey-likert-extra-labels","65","272181","0.0-26.0-2.0","73134","2B","conjoined","woman","","","W4 and W2 are playing with each other","play1","rating_volition","{""Q0"":3}","[0]","W4 wanted to play with W2","W2 wanted to play with W4"
"1428","","","survey-likert-extra-labels","66","273611","0.0-26.0-3.0-0.0","73134","2B","conjoined","woman","","","W4 and W2 are playing with each other","play1","rating_causation","{""Q0"":3}","[0]","W4 asked to play with W2","W2 asked to play with W4"
"null","Ruth and Jane are marrying each other","","html-keyboard-response","67","275614","0.0-27.0-0.0","73134","2B","conjoined","woman","","null","W2 and W4 are marrying each other","marry1","sentence","","","",""
"2507","","","survey-likert-extra-labels","68","278123","0.0-27.0-1.0-0.0","73134","2B","conjoined","woman","","","W2 and W4 are marrying each other","marry1","rating_causation","{""Q0"":3}","[0]","W4 asked to marry W2","W2 asked to marry W4"
"1743.9999999999418","","","survey-likert-extra-labels","69","279869","0.0-27.0-2.0","73134","2B","conjoined","woman","","","W2 and W4 are marrying each other","marry1","rating_volition","{""Q0"":3}","[0]","W4 wanted to marry W2","W2 wanted to marry W4"
"null","Kate and Beth are kissing each other","","html-keyboard-response","70","281872","0.0-28.0-0.0","73134","2B","conjoined","woman","","null","W1 and W3 are kissing each other","kiss1","sentence","","","",""
"1714","","","survey-likert-extra-labels","71","283588","0.0-28.0-1.0-0.0","73134","2B","conjoined","woman","","","W1 and W3 are kissing each other","kiss1","rating_causation","{""Q0"":3}","[0]","W3 asked to kiss W1","W1 asked to kiss W3"
"2777","","","survey-likert-extra-labels","72","286367","0.0-28.0-2.0","73134","2B","conjoined","woman","","","W1 and W3 are kissing each other","kiss1","rating_volition","{""Q0"":3}","[0]","W3 wanted to kiss W1","W1 wanted to kiss W3"
"null","Ruth and Jane are touching each other","","html-keyboard-response","73","288370","0.0-29.0-0.0","73134","2B","conjoined","woman","","null","W2 and W4 are touching each other","touch1","sentence","","","",""
"1803","","","survey-likert-extra-labels","74","290175","0.0-29.0-1.0-0.0","73134","2B","conjoined","woman","","","W2 and W4 are touching each other","touch1","rating_causation","{""Q0"":3}","[0]","W4 asked to touch W2","W2 asked to touch W4"
"2861","","","survey-likert-extra-labels","75","293039","0.0-29.0-2.0","73134","2B","conjoined","woman","","","W2 and W4 are touching each other","touch1","rating_volition","{""Q0"":3}","[0]","W4 wanted to touch W2","W2 wanted to touch W4"
"null","Dave and Kate are flirting with each other","","html-keyboard-response","76","295040","0.0-30.0-0.0","73134","2B","conjoined","woman","","null","M3 and W1 are flirting with each other","flirt4","sentence","","","",""
"1324","","","survey-likert-extra-labels","77","296366","0.0-30.0-1.0-0.0","73134","2B","conjoined","woman","","","M3 and W1 are flirting with each other","flirt4","rating_causation","{""Q0"":3}","[0]","W1 started flirting with M3 first","M3 started flirting with W1 first"
"1575","","","survey-likert-extra-labels","78","297943","0.0-30.0-2.0","73134","2B","conjoined","woman","","","M3 and W1 are flirting with each other","flirt4","rating_volition","{""Q0"":3}","[0]","W1 wanted to flirt with M3","M3 wanted to flirt with W1"
"null","Luke and Jane are kissing each other","","html-keyboard-response","79","299945","0.0-31.0-0.0","73134","2B","conjoined","woman","","null","M2 and W4 are kissing each other","kiss3","sentence","","","",""
"2715","","","survey-likert-extra-labels","80","302663","0.0-31.0-1.0-0.0","73134","2B","conjoined","woman","","","M2 and W4 are kissing each other","kiss3","rating_causation","{""Q0"":3}","[0]","W4 asked to kiss M2","M2 asked to kiss W4"
"1731","","","survey-likert-extra-labels","81","304397","0.0-31.0-2.0","73134","2B","conjoined","woman","","","M2 and W4 are kissing each other","kiss3","rating_volition","{""Q0"":3}","[0]","W4 wanted to kiss M2","M2 wanted to kiss W4"
"null","Mike and Luke are fighting each other","","html-keyboard-response","82","306400","0.0-32.0-0.0","73134","2B","conjoined","woman","","null","M4 and M2 are fighting each other","fight2","sentence","","","",""
"1731","","","survey-likert-extra-labels","83","308133","0.0-32.0-2.0","73134","2B","conjoined","woman","","","M4 and M2 are fighting each other","fight2","rating_volition","{""Q0"":3}","[0]","M4 wanted to fight M2","M2 wanted to fight M4"
"1430","","","survey-likert-extra-labels","84","309566","0.0-32.0-3.0-0.0","73134","2B","conjoined","woman","","","M4 and M2 are fighting each other","fight2","rating_causation","{""Q0"":3}","[0]","M4 started the fight with M2","M2 started the fight with M4"
"null","Fred and Dave are dancing with each other","","html-keyboard-response","85","311568","0.0-33.0-0.0","73134","2B","conjoined","woman","","null","M1 and M3 are dancing with each other","dance2","sentence","","","",""
"1507","","","survey-likert-extra-labels","86","313077","0.0-33.0-1.0-0.0","73134","2B","conjoined","woman","","","M1 and M3 are dancing with each other","dance2","rating_causation","{""Q0"":3}","[0]","M3 asked M1 to dance","M1 asked M3 to dance"
"1751","","","survey-likert-extra-labels","87","314831","0.0-33.0-2.0","73134","2B","conjoined","woman","","","M1 and M3 are dancing with each other","dance2","rating_volition","{""Q0"":3}","[0]","M3 wanted to dance with M1","M1 wanted to dance with M3"
"null","Luke and Jane are dancing with each other","","html-keyboard-response","88","316835","0.0-34.0-0.0","73134","2B","conjoined","woman","","null","M2 and W4 are dancing with each other","dance4","sentence","","","",""
"1482","","","survey-likert-extra-labels","89","318319","0.0-34.0-1.0-0.0","73134","2B","conjoined","woman","","","M2 and W4 are dancing with each other","dance4","rating_causation","{""Q0"":3}","[0]","W4 asked M2 to dance","M2 asked W4 to dance"
"4125","","","survey-likert-extra-labels","90","322446","0.0-34.0-2.0","73134","2B","conjoined","woman","","","M2 and W4 are dancing with each other","dance4","rating_volition","{""Q0"":3}","[0]","W4 wanted to dance with M2","M2 wanted to dance with W4"
"null","Luke is reminding Jane","","html-keyboard-response","91","324449","0.0-35.0-0.0","73134","2B","conjoined","woman","","null","M2 is reminding W4","remind","sentence","","","",""
"5038","","","survey-likert-extra-labels","92","329488","0.0-35.0-2.0","73134","2B","conjoined","woman","","","M2 is reminding W4","remind","rating_volition","{""Q0"":0}","[0]","M2 is telling W4 again","W4 is telling M2 again"
"6100","","","survey-likert-extra-labels","93","335591","0.0-35.0-3.0-0.0","73134","2B","conjoined","woman","","","M2 is reminding W4","remind","rating_causation","{""Q0"":5}","[0]","M2 is remembering","W4 is remembering"
"null","Luke and Mike are touching each other","","html-keyboard-response","94","337594","0.0-36.0-0.0","73134","2B","conjoined","woman","","null","M2 and M4 are touching each other","touch2","sentence","","","",""
"3293.999999999942","","","survey-likert-extra-labels","95","340890","0.0-36.0-1.0-0.0","73134","2B","conjoined","woman","","","M2 and M4 are touching each other","touch2","rating_causation","{""Q0"":3}","[0]","M4 asked to touch M2","M2 asked to touch M4"
"1771","","","survey-likert-extra-labels","96","342664","0.0-36.0-2.0","73134","2B","conjoined","woman","","","M2 and M4 are touching each other","touch2","rating_volition","{""Q0"":3}","[0]","M4 wanted to touch M2","M2 wanted to touch M4"
"null","Kate and Beth are talking to each other","","html-keyboard-response","97","344666","0.0-37.0-0.0","73134","2B","conjoined","woman","","null","W1 and W3 are talking to each other","talk1","sentence","","","",""
"1684","","","survey-likert-extra-labels","98","346351","0.0-37.0-2.0","73134","2B","conjoined","woman","","","W1 and W3 are talking to each other","talk1","rating_volition","{""Q0"":3}","[0]","W3 wanted to talk to W1","W1 wanted to talk to W3"
"1872.0000000000582","","","survey-likert-extra-labels","99","348225","0.0-37.0-3.0-0.0","73134","2B","conjoined","woman","","","W1 and W3 are talking to each other","talk1","rating_causation","{""Q0"":3}","[0]","W3 started a conversation with W1","W1 started a conversation with W3"
"null","Kate and Beth are dancing with each other","","html-keyboard-response","100","350228","0.0-38.0-0.0","73134","2B","conjoined","woman","","null","W1 and W3 are dancing with each other","dance1","sentence","","","",""
"1596","","","survey-likert-extra-labels","101","351825","0.0-38.0-2.0","73134","2B","conjoined","woman","","","W1 and W3 are dancing with each other","dance1","rating_volition","{""Q0"":3}","[0]","W3 wanted to dance with W1","W1 wanted to dance with W3"
"1911","","","survey-likert-extra-labels","102","353739","0.0-38.0-3.0-0.0","73134","2B","conjoined","woman","","","W1 and W3 are dancing with each other","dance1","rating_causation","{""Q0"":3}","[0]","W3 asked W1 to dance","W1 asked W3 to dance"
"null","Fred is driving Dave","","html-keyboard-response","103","355742","0.0-39.0-0.0","73134","2B","conjoined","woman","","null","M1 is driving M3","drive","sentence","","","",""
"6511","","","survey-likert-extra-labels","104","362254","0.0-39.0-1.0-0.0","73134","2B","conjoined","woman","","","M1 is driving M3","drive","rating_causation","{""Q0"":6}","[0]","M3 is taking M1 somewhere","M1 is taking M3 somewhere"
"6219","","","survey-likert-extra-labels","105","368476","0.0-39.0-2.0","73134","2B","conjoined","woman","","","M1 is driving M3","drive","rating_volition","{""Q0"":0}","[0]","M3 is M1's passenger","M1 is M3's passenger"
"null","Mike and Luke are playing with each other","","html-keyboard-response","106","370478","0.0-40.0-0.0","73134","2B","conjoined","woman","","null","M4 and M2 are playing with each other","play2","sentence","","","",""
"2260","","","survey-likert-extra-labels","107","372739","0.0-40.0-1.0-0.0","73134","2B","conjoined","woman","","","M4 and M2 are playing with each other","play2","rating_causation","{""Q0"":3}","[0]","M4 asked to play with M2","M2 asked to play with M4"
"1345","","","survey-likert-extra-labels","108","374086","0.0-40.0-2.0","73134","2B","conjoined","woman","","","M4 and M2 are playing with each other","play2","rating_volition","{""Q0"":3}","[0]","M4 wanted to play with M2","M2 wanted to play with M4"
"null","Jane and Ruth are fighting each other","","html-keyboard-response","109","376089","0.0-41.0-0.0","73134","2B","conjoined","woman","","null","W4 and W2 are fighting each other","fight1","sentence","","","",""
"1337","","","survey-likert-extra-labels","110","377428","0.0-41.0-1.0-0.0","73134","2B","conjoined","woman","","","W4 and W2 are fighting each other","fight1","rating_causation","{""Q0"":3}","[0]","W4 started the fight with W2","W2 started the fight with W4"
"1576.0000000000582","","","survey-likert-extra-labels","111","379006","0.0-41.0-2.0","73134","2B","conjoined","woman","","","W4 and W2 are fighting each other","fight1","rating_volition","{""Q0"":3}","[0]","W4 wanted to fight W2","W2 wanted to fight W4"
"null","Beth and Kate are shouting at each other","","html-keyboard-response","112","381009","0.0-42.0-0.0","73134","2B","conjoined","woman","","null","W3 and W1 are shouting at each other","shout1","sentence","","","",""
"1816","","","survey-likert-extra-labels","113","382826","0.0-42.0-2.0","73134","2B","conjoined","woman","","","W3 and W1 are shouting at each other","shout1","rating_volition","{""Q0"":3}","[0]","W3 wanted to shout at W1","W1 wanted to shout at W3"
"1306","","","survey-likert-extra-labels","114","384135","0.0-42.0-3.0-0.0","73134","2B","conjoined","woman","","","W3 and W1 are shouting at each other","shout1","rating_causation","{""Q0"":3}","[0]","W3 shouted at W1 first","W1 shouted at W3 first"
"null","Ruth and Mike are talking to each other","","html-keyboard-response","115","386138","0.0-43.0-0.0","73134","2B","conjoined","woman","","null","W2 and M4 are talking to each other","talk3","sentence","","","",""
"4081","","","survey-likert-extra-labels","116","390221","0.0-43.0-2.0","73134","2B","conjoined","woman","","","W2 and M4 are talking to each other","talk3","rating_volition","{""Q0"":3}","[0]","M4 wanted to talk to W2","W2 wanted to talk to M4"
"1511","","","survey-likert-extra-labels","117","391735","0.0-43.0-3.0-0.0","73134","2B","conjoined","woman","","","W2 and M4 are talking to each other","talk3","rating_causation","{""Q0"":3}","[0]","M4 started a conversation with W2","W2 started a conversation with M4"
"null","Dave and Kate are marrying each other","","html-keyboard-response","118","393737","0.0-44.0-0.0","73134","2B","conjoined","woman","","null","M3 and W1 are marrying each other","marry3","sentence","","","",""
"1306","","","survey-likert-extra-labels","119","395046","0.0-44.0-2.0","73134","2B","conjoined","woman","","","M3 and W1 are marrying each other","marry3","rating_volition","{""Q0"":3}","[0]","W1 wanted to marry M3","M3 wanted to marry W1"
"1387","","","survey-likert-extra-labels","120","396436","0.0-44.0-3.0-0.0","73134","2B","conjoined","woman","","","M3 and W1 are marrying each other","marry3","rating_causation","{""Q0"":3}","[0]","W1 asked to marry M3","M3 asked to marry W1"
"null","Luke and Mike are marrying each other","","html-keyboard-response","121","398438","0.0-45.0-0.0","73134","2B","conjoined","woman","","null","M2 and M4 are marrying each other","marry2","sentence","","","",""
"1256.0000000000582","","","survey-likert-extra-labels","122","399696","0.0-45.0-1.0-0.0","73134","2B","conjoined","woman","","","M2 and M4 are marrying each other","marry2","rating_causation","{""Q0"":3}","[0]","M4 asked to marry M2","M2 asked to marry M4"
"1403","","","survey-likert-extra-labels","123","401100","0.0-45.0-2.0","73134","2B","conjoined","woman","","","M2 and M4 are marrying each other","marry2","rating_volition","{""Q0"":3}","[0]","M4 wanted to marry M2","M2 wanted to marry M4"
"null","Jane and Luke are shouting at each other","","html-keyboard-response","124","403103","0.0-46.0-0.0","73134","2B","conjoined","woman","","null","W4 and M2 are shouting at each other","shout3","sentence","","","",""
"1555.0000000000582","","","survey-likert-extra-labels","125","404660","0.0-46.0-2.0","73134","2B","conjoined","woman","","","W4 and M2 are shouting at each other","shout3","rating_volition","{""Q0"":3}","[0]","W4 wanted to shout at M2","M2 wanted to shout at W4"
"1639","","","survey-likert-extra-labels","126","406302","0.0-46.0-3.0-0.0","73134","2B","conjoined","woman","","","W4 and M2 are shouting at each other","shout3","rating_causation","{""Q0"":3}","[0]","W4 shouted at M2 first","M2 shouted at W4 first"
"null","Jane and Luke are arguing with each other","","html-keyboard-response","127","408304","0.0-47.0-0.0","73134","2B","conjoined","woman","","null","W4 and M2 are arguing with each other","argue4","sentence","","","",""
"1323","","","survey-likert-extra-labels","128","409629","0.0-47.0-1.0-0.0","73134","2B","conjoined","woman","","","W4 and M2 are arguing with each other","argue4","rating_causation","{""Q0"":3}","[0]","W4 started an argument with M2","M2 started an argument with W4"
"1223","","","survey-likert-extra-labels","129","410855","0.0-47.0-2.0","73134","2B","conjoined","woman","","","W4 and M2 are arguing with each other","argue4","rating_volition","{""Q0"":3}","[0]","W4 wanted to argue with M2","M2 wanted to argue with W4"
"null","Luke and Mike are flirting with each other","","html-keyboard-response","130","412857","0.0-48.0-0.0","73134","2B","conjoined","woman","","null","M2 and M4 are flirting with each other","flirt2","sentence","","","",""
"1412","","","survey-likert-extra-labels","131","414271","0.0-48.0-2.0","73134","2B","conjoined","woman","","","M2 and M4 are flirting with each other","flirt2","rating_volition","{""Q0"":3}","[0]","M4 wanted to flirt with M2","M2 wanted to flirt with M4"
"1278","","","survey-likert-extra-labels","132","415552","0.0-48.0-3.0-0.0","73134","2B","conjoined","woman","","","M2 and M4 are flirting with each other","flirt2","rating_causation","{""Q0"":3}","[0]","M4 started flirting with M2 first","M2 started flirting with M4 first"
"null","Kate and Dave are playing with each other","","html-keyboard-response","133","417555","0.0-49.0-0.0","73134","2B","conjoined","woman","","null","W1 and M3 are playing with each other","play3","sentence","","","",""
"3453","","","survey-likert-extra-labels","134","421010","0.0-49.0-2.0","73134","2B","conjoined","woman","","","W1 and M3 are playing with each other","play3","rating_volition","{""Q0"":3}","[0]","W1 wanted to play with M3","M3 wanted to play with W1"
"2075","","","survey-likert-extra-labels","135","423088","0.0-49.0-3.0-0.0","73134","2B","conjoined","woman","","","W1 and M3 are playing with each other","play3","rating_causation","{""Q0"":3}","[0]","W1 asked to play with M3","M3 asked to play with W1"
"null","Ruth and Mike are dancing with each other","","html-keyboard-response","136","425091","0.0-50.0-0.0","73134","2B","conjoined","woman","","null","W2 and M4 are dancing with each other","dance3","sentence","","","",""
"1291","","","survey-likert-extra-labels","137","426384","0.0-50.0-2.0","73134","2B","conjoined","woman","","","W2 and M4 are dancing with each other","dance3","rating_volition","{""Q0"":3}","[0]","M4 wanted to dance with W2","W2 wanted to dance with M4"
"1311","","","survey-likert-extra-labels","138","427697","0.0-50.0-3.0-0.0","73134","2B","conjoined","woman","","","W2 and M4 are dancing with each other","dance3","rating_causation","{""Q0"":3}","[0]","M4 asked W2 to dance","W2 asked M4 to dance"
"null","Mike and Ruth are arguing with each other","","html-keyboard-response","139","429700","0.0-51.0-0.0","73134","2B","conjoined","woman","","null","M4 and W2 are arguing with each other","argue3","sentence","","","",""
"1219","","","survey-likert-extra-labels","140","430921","0.0-51.0-2.0","73134","2B","conjoined","woman","","","M4 and W2 are arguing with each other","argue3","rating_volition","{""Q0"":3}","[0]","M4 wanted to argue with W2","W2 wanted to argue with M4"
"1839","","","survey-likert-extra-labels","141","432763","0.0-51.0-3.0-0.0","73134","2B","conjoined","woman","","","M4 and W2 are arguing with each other","argue3","rating_causation","{""Q0"":3}","[0]","M4 started an argument with W2","W2 started an argument with M4"
"null","Dave and Fred are shouting at each other","","html-keyboard-response","142","434766","0.0-52.0-0.0","73134","2B","conjoined","woman","","null","M3 and M1 are shouting at each other","shout2","sentence","","","",""
"1243","","","survey-likert-extra-labels","143","436011","0.0-52.0-1.0-0.0","73134","2B","conjoined","woman","","","M3 and M1 are shouting at each other","shout2","rating_causation","{""Q0"":3}","[0]","M3 shouted at M1 first","M1 shouted at M3 first"
"1591","","","survey-likert-extra-labels","144","437604","0.0-52.0-2.0","73134","2B","conjoined","woman","","","M3 and M1 are shouting at each other","shout2","rating_volition","{""Q0"":3}","[0]","M3 wanted to shout at M1","M1 wanted to shout at M3"
"null","Beth and Fred are marrying each other","","html-keyboard-response","145","439606","0.0-53.0-0.0","73134","2B","conjoined","woman","","null","W3 and M1 are marrying each other","marry4","sentence","","","",""
"1276","","","survey-likert-extra-labels","146","440884","0.0-53.0-2.0","73134","2B","conjoined","woman","","","W3 and M1 are marrying each other","marry4","rating_volition","{""Q0"":3}","[0]","M1 wanted to marry W3","W3 wanted to marry M1"
"1802","","","survey-likert-extra-labels","147","442689","0.0-53.0-3.0-0.0","73134","2B","conjoined","woman","","","W3 and M1 are marrying each other","marry4","rating_causation","{""Q0"":3}","[0]","M1 asked to marry W3","W3 asked to marry M1"
"null","Beth and Fred are flirting with each other","","html-keyboard-response","148","444691","0.0-54.0-0.0","73134","2B","conjoined","woman","","null","W3 and M1 are flirting with each other","flirt3","sentence","","","",""
"1536","","","survey-likert-extra-labels","149","446228","0.0-54.0-2.0","73134","2B","conjoined","woman","","","W3 and M1 are flirting with each other","flirt3","rating_volition","{""Q0"":3}","[0]","M1 wanted to flirt with W3","W3 wanted to flirt with M1"
"1269.0000000000582","","","survey-likert-extra-labels","150","447498","0.0-54.0-3.0-0.0","73134","2B","conjoined","woman","","","W3 and M1 are flirting with each other","flirt3","rating_causation","{""Q0"":3}","[0]","M1 started flirting with W3 first","W3 started flirting with M1 first"
"2067","<p>Thank you for completing that task.</p><p>The final part of this session is a short questionnaire.</p><p>Press Continue.</p>","0","html-button-response","151","449567","0.0-55.0","73134","2B","conjoined","woman","","","","","","","","",""
"20127.99999999994","","","survey-text","152","470723","0.0-56.0","73134","2B","conjoined","woman","","","","","demographics","{""Q0"":""30"",""Q1"":""English"",""Q2"":""English"",""Q3"":""UK"",""Q4"":""British"",""Q5"":""White"",""Q6"":""Female""}","","",""
"1739","<p>Have you lived in the UK for the last 5 years or more?</p>","0","html-button-response","153","472464","0.0-57.0","73134","2B","conjoined","woman","","","","","fiveyears","","","",""
"6853","","","survey-text","154","480326","0.0-58.0","73134","2B","conjoined","woman","","","","","worker_id","{""Q0"":""5ef225a539f26804acb35d4c""}","","",""
"21445","","","external-html","155","501855","0.0-59.0","73134","2B","conjoined","woman","debrief.html","","","","","","","",""
