"rt","stimulus","button_pressed","trial_type","trial_index","time_elapsed","internal_node_id","subject","list","condition","ppt_gender","url","key_press","sentence_type","verb","test_part","responses","question_order","left_part","right_part"
"2209.949999989476","Welcome to the experiment. Press Continue to begin.","0","html-button-response","0","2221","0.0-0.0","75007","1A","conjoined","man","","","","","","","","",""
"13957.330000004731","","","external-html","1","17261","0.0-1.0","75007","1A","conjoined","man","consent.html","","","","","","","",""
"15223.119999995106","<p>Welcome.</p><p>In this experiment we will ask you to imagine some situations.</p><p>Each trial starts with a description of an event.</p><p>Then you will see alternative descriptions of that event, and you will rate on a scale how best they match the original description.</p><p>You will give your answer by clicking a button on a rating scale.</p><p>To do this task, you will have to use your imagination to visualise these events.</p><br><p>Ready?</p>","0","html-button-response","2","32490","0.0-2.0","75007","1A","conjoined","man","","","","","","","","",""
"3723.9799999952083","<p>Before the experiment starts, you will watch an example trial. Press 'Continue'.</p>","0","html-button-response","3","37234","0.0-3.0","75007","1A","conjoined","man","","","","","","","","",""
"null","The police officer is arresting the robber","","html-keyboard-response","4","40264","0.0-4.0","75007","1A","conjoined","man","","null","","","","","","",""
"15315.815000009025","<img src='img/Example-trial.jpg' style='height:550px;''></img>","0","html-button-response","5","55587","0.0-5.0","75007","1A","conjoined","man","","","","","","","","",""
"8755.850000001374","<p>Ready to start the experiment?</p><br><p><strong>Remember to give an answer by clicking a button on the rating scale.</strong></p><p>Press 'Continue' to begin.</p>","0","html-button-response","6","65354","0.0-6.0","75007","1A","conjoined","man","","","","","","","","",""
"null","Ruth and Kate are talking to each other","","html-keyboard-response","7","68394","0.0-7.0-0.0","75007","1A","conjoined","man","","null","W1 and W3 are talking to each other","talk1","sentence","","","",""
"13776.564999992843","","","survey-likert-extra-labels","8","82179","0.0-7.0-2.0","75007","1A","conjoined","man","","","W1 and W3 are talking to each other","talk1","rating_volition","{""Q0"":3}","[0]","W1 wanted to talk to W3","W3 wanted to talk to W1"
"14160.45499999018","","","survey-likert-extra-labels","9","96349","0.0-7.0-3.0-0.0","75007","1A","conjoined","man","","","W1 and W3 are talking to each other","talk1","rating_causation","{""Q0"":3}","[0]","W1 started a conversation with W3","W3 started a conversation with W1"
"null","Jane and Dave are dancing with each other","","html-keyboard-response","10","98366","0.0-8.0-0.0","75007","1A","conjoined","man","","null","W2 and M4 are dancing with each other","dance3","sentence","","","",""
"6440.589999998338","","","survey-likert-extra-labels","11","104812","0.0-8.0-2.0","75007","1A","conjoined","man","","","W2 and M4 are dancing with each other","dance3","rating_volition","{""Q0"":3}","[0]","W2 wanted to dance with M4","M4 wanted to dance with W2"
"9167.004999995697","","","survey-likert-extra-labels","12","113988","0.0-8.0-3.0-0.0","75007","1A","conjoined","man","","","W2 and M4 are dancing with each other","dance3","rating_causation","{""Q0"":3}","[0]","W2 asked M4 to dance","M4 asked W2 to dance"
"null","Ruth and Fred are fighting each other","","html-keyboard-response","13","116009","0.0-9.0-0.0","75007","1A","conjoined","man","","null","W1 and M3 are fighting each other","fight4","sentence","","","",""
"7291.649999999208","","","survey-likert-extra-labels","14","123307","0.0-9.0-1.0-0.0","75007","1A","conjoined","man","","","W1 and M3 are fighting each other","fight4","rating_causation","{""Q0"":3}","[0]","M3 started the fight with W1","W1 started the fight with M3"
"5225.879999998142","","","survey-likert-extra-labels","15","128540","0.0-9.0-2.0","75007","1A","conjoined","man","","","W1 and M3 are fighting each other","fight4","rating_volition","{""Q0"":3}","[0]","M3 wanted to fight W1","W1 wanted to fight M3"
"null","Kate and Luke are flirting with each other","","html-keyboard-response","16","130556","0.0-10.0-0.0","75007","1A","conjoined","man","","null","W3 and M1 are flirting with each other","flirt3","sentence","","","",""
"6658.880000002682","","","survey-likert-extra-labels","17","137220","0.0-10.0-2.0","75007","1A","conjoined","man","","","W3 and M1 are flirting with each other","flirt3","rating_volition","{""Q0"":3}","[0]","W3 wanted to flirt with M1","M1 wanted to flirt with W3"
"6383.864999996149","","","survey-likert-extra-labels","18","143611","0.0-10.0-3.0-0.0","75007","1A","conjoined","man","","","W3 and M1 are flirting with each other","flirt3","rating_causation","{""Q0"":3}","[0]","W3 started flirting with M1 first","M1 started flirting with W3 first"
"null","Mike and Dave are touching each other","","html-keyboard-response","19","145622","0.0-11.0-0.0","75007","1A","conjoined","man","","null","M2 and M4 are touching each other","touch2","sentence","","","",""
"8022.5700000009965","","","survey-likert-extra-labels","20","153651","0.0-11.0-1.0-0.0","75007","1A","conjoined","man","","","M2 and M4 are touching each other","touch2","rating_causation","{""Q0"":3}","[0]","M2 asked to touch M4","M4 asked to touch M2"
"2824.0350000123726","","","survey-likert-extra-labels","21","156483","0.0-11.0-2.0","75007","1A","conjoined","man","","","M2 and M4 are touching each other","touch2","rating_volition","{""Q0"":3}","[0]","M2 wanted to touch M4","M4 wanted to touch M2"
"null","Dave and Mike are marrying each other","","html-keyboard-response","22","158493","0.0-12.0-0.0","75007","1A","conjoined","man","","null","M4 and M2 are marrying each other","marry2","sentence","","","",""
"7304.185000000871","","","survey-likert-extra-labels","23","165803","0.0-12.0-1.0-0.0","75007","1A","conjoined","man","","","M4 and M2 are marrying each other","marry2","rating_causation","{""Q0"":3}","[0]","M2 asked to marry M4","M4 asked to marry M2"
"3577.6199999963865","","","survey-likert-extra-labels","24","169388","0.0-12.0-2.0","75007","1A","conjoined","man","","","M4 and M2 are marrying each other","marry2","rating_volition","{""Q0"":3}","[0]","M2 wanted to marry M4","M4 wanted to marry M2"
"null","Jane is teaching Dave","","html-keyboard-response","25","171398","0.0-13.0-0.0","75007","1A","conjoined","man","","null","W2 is teaching M4","teach","sentence","","","",""
"12247.125000008964","","","survey-likert-extra-labels","26","183651","0.0-13.0-2.0","75007","1A","conjoined","man","","","W2 is teaching M4","teach","rating_volition","{""Q0"":0}","[0]","W2 is educating M4","M4 is educating W2"
"11120.71499999729","","","survey-likert-extra-labels","27","194779","0.0-13.0-3.0-0.0","75007","1A","conjoined","man","","","W2 is teaching M4","teach","rating_causation","{""Q0"":6}","[0]","W2 is learning from M4","M4 is learning from W2"
"null","Mike and Dave are flirting with each other","","html-keyboard-response","28","196786","0.0-14.0-0.0","75007","1A","conjoined","man","","null","M2 and M4 are flirting with each other","flirt2","sentence","","","",""
"4443.644999992102","","","survey-likert-extra-labels","29","201236","0.0-14.0-2.0","75007","1A","conjoined","man","","","M2 and M4 are flirting with each other","flirt2","rating_volition","{""Q0"":3}","[0]","M2 wanted to flirt with M4","M4 wanted to flirt with M2"
"4137.199999997392","","","survey-likert-extra-labels","30","205381","0.0-14.0-3.0-0.0","75007","1A","conjoined","man","","","M2 and M4 are flirting with each other","flirt2","rating_causation","{""Q0"":3}","[0]","M2 started flirting with M4 first","M4 started flirting with M2 first"
"null","Beth and Mike are kissing each other","","html-keyboard-response","31","207388","0.0-15.0-0.0","75007","1A","conjoined","man","","null","W4 and M2 are kissing each other","kiss3","sentence","","","",""
"4154.900000008638","","","survey-likert-extra-labels","32","211547","0.0-15.0-2.0","75007","1A","conjoined","man","","","W4 and M2 are kissing each other","kiss3","rating_volition","{""Q0"":3}","[0]","M2 wanted to kiss W4","W4 wanted to kiss M2"
"3032.5400000001537","","","survey-likert-extra-labels","33","214587","0.0-15.0-3.0-0.0","75007","1A","conjoined","man","","","W4 and M2 are kissing each other","kiss3","rating_causation","{""Q0"":3}","[0]","M2 asked to kiss W4","W4 asked to kiss M2"
"null","Mike and Beth are shouting at each other","","html-keyboard-response","34","216604","0.0-16.0-0.0","75007","1A","conjoined","man","","null","M2 and W4 are shouting at each other","shout3","sentence","","","",""
"4328.529999998864","","","survey-likert-extra-labels","35","220939","0.0-16.0-1.0-0.0","75007","1A","conjoined","man","","","M2 and W4 are shouting at each other","shout3","rating_causation","{""Q0"":3}","[0]","M2 shouted at W4 first","W4 shouted at M2 first"
"2578.0349999986356","","","survey-likert-extra-labels","36","223524","0.0-16.0-2.0","75007","1A","conjoined","man","","","M2 and W4 are shouting at each other","shout3","rating_volition","{""Q0"":3}","[0]","M2 wanted to shout at W4","W4 wanted to shout at M2"
"null","Kate is feeding Luke","","html-keyboard-response","37","225530","0.0-17.0-0.0","75007","1A","conjoined","man","","null","W3 is feeding M1","feed","sentence","","","",""
"7530.450000005658","","","survey-likert-extra-labels","38","233067","0.0-17.0-2.0","75007","1A","conjoined","man","","","W3 is feeding M1","feed","rating_volition","{""Q0"":0}","[0]","W3 is giving M1 food","M1 is giving W3 food"
"12984.989999997197","","","survey-likert-extra-labels","39","246060","0.0-17.0-3.0-0.0","75007","1A","conjoined","man","","","W3 is feeding M1","feed","rating_causation","{""Q0"":6}","[0]","W3 is eating M1's food","M1 is eating W3's food"
"null","Beth and Jane are fighting each other","","html-keyboard-response","40","248069","0.0-18.0-0.0","75007","1A","conjoined","man","","null","W4 and W2 are fighting each other","fight1","sentence","","","",""
"5736.870000007912","","","survey-likert-extra-labels","41","253812","0.0-18.0-1.0-0.0","75007","1A","conjoined","man","","","W4 and W2 are fighting each other","fight1","rating_causation","{""Q0"":3}","[0]","W2 started the fight with W4","W4 started the fight with W2"
"5175.300000002608","","","survey-likert-extra-labels","42","258996","0.0-18.0-2.0","75007","1A","conjoined","man","","","W4 and W2 are fighting each other","fight1","rating_volition","{""Q0"":3}","[0]","W2 wanted to fight W4","W4 wanted to fight W2"
"null","Ruth and Kate are shouting at each other","","html-keyboard-response","43","261014","0.0-19.0-0.0","75007","1A","conjoined","man","","null","W1 and W3 are shouting at each other","shout1","sentence","","","",""
"8862.599999993108","","","survey-likert-extra-labels","44","269883","0.0-19.0-2.0","75007","1A","conjoined","man","","","W1 and W3 are shouting at each other","shout1","rating_volition","{""Q0"":3}","[0]","W1 wanted to shout at W3","W3 wanted to shout at W1"
"4736.424999995506","","","survey-likert-extra-labels","45","274627","0.0-19.0-3.0-0.0","75007","1A","conjoined","man","","","W1 and W3 are shouting at each other","shout1","rating_causation","{""Q0"":3}","[0]","W1 shouted at W3 first","W3 shouted at W1 first"
"null","Jane and Beth are playing with each other","","html-keyboard-response","46","276636","0.0-20.0-0.0","75007","1A","conjoined","man","","null","W2 and W4 are playing with each other","play1","sentence","","","",""
"2642.680000004475","","","survey-likert-extra-labels","47","279283","0.0-20.0-2.0","75007","1A","conjoined","man","","","W2 and W4 are playing with each other","play1","rating_volition","{""Q0"":3}","[0]","W2 wanted to play with W4","W4 wanted to play with W2"
"2072.744999997667","","","survey-likert-extra-labels","48","281363","0.0-20.0-3.0-0.0","75007","1A","conjoined","man","","","W2 and W4 are playing with each other","play1","rating_causation","{""Q0"":3}","[0]","W2 asked to play with W4","W4 asked to play with W2"
"null","Fred and Luke are arguing with each other","","html-keyboard-response","49","283368","0.0-21.0-0.0","75007","1A","conjoined","man","","null","M3 and M1 are arguing with each other","argue2","sentence","","","",""
"2412.3249999975087","","","survey-likert-extra-labels","50","285787","0.0-21.0-1.0-0.0","75007","1A","conjoined","man","","","M3 and M1 are arguing with each other","argue2","rating_causation","{""Q0"":3}","[0]","M1 started an argument with M3","M3 started an argument with M1"
"2786.745000004885","","","survey-likert-extra-labels","51","288581","0.0-21.0-2.0","75007","1A","conjoined","man","","","M3 and M1 are arguing with each other","argue2","rating_volition","{""Q0"":3}","[0]","M1 wanted to argue with M3","M3 wanted to argue with M1"
"null","Luke and Kate are marrying each other","","html-keyboard-response","52","290592","0.0-22.0-0.0","75007","1A","conjoined","man","","null","M1 and W3 are marrying each other","marry4","sentence","","","",""
"4932.864999995218","","","survey-likert-extra-labels","53","295533","0.0-22.0-1.0-0.0","75007","1A","conjoined","man","","","M1 and W3 are marrying each other","marry4","rating_causation","{""Q0"":3}","[0]","W3 asked to marry M1","M1 asked to marry W3"
"2350.7799999933923","","","survey-likert-extra-labels","54","297892","0.0-22.0-2.0","75007","1A","conjoined","man","","","M1 and W3 are marrying each other","marry4","rating_volition","{""Q0"":3}","[0]","W3 wanted to marry M1","M1 wanted to marry W3"
"null","Dave and Mike are fighting each other","","html-keyboard-response","55","299901","0.0-23.0-0.0","75007","1A","conjoined","man","","null","M4 and M2 are fighting each other","fight2","sentence","","","",""
"2711.3050000043586","","","survey-likert-extra-labels","56","302619","0.0-23.0-1.0-0.0","75007","1A","conjoined","man","","","M4 and M2 are fighting each other","fight2","rating_causation","{""Q0"":3}","[0]","M2 started the fight with M4","M4 started the fight with M2"
"2088.550000000396","","","survey-likert-extra-labels","57","304715","0.0-23.0-2.0","75007","1A","conjoined","man","","","M4 and M2 are fighting each other","fight2","rating_volition","{""Q0"":3}","[0]","M2 wanted to fight M4","M4 wanted to fight M2"
"null","Jane and Dave are shouting at each other","","html-keyboard-response","58","306721","0.0-24.0-0.0","75007","1A","conjoined","man","","null","W2 and M4 are shouting at each other","shout4","sentence","","","",""
"2288.47999998834","","","survey-likert-extra-labels","59","309019","0.0-24.0-2.0","75007","1A","conjoined","man","","","W2 and M4 are shouting at each other","shout4","rating_volition","{""Q0"":3}","[0]","W2 wanted to shout at M4","M4 wanted to shout at W2"
"2713.145000001532","","","survey-likert-extra-labels","60","311739","0.0-24.0-3.0-0.0","75007","1A","conjoined","man","","","W2 and M4 are shouting at each other","shout4","rating_causation","{""Q0"":3}","[0]","W2 shouted at M4 first","M4 shouted at W2 first"
"null","Luke and Fred are talking to each other","","html-keyboard-response","61","313756","0.0-25.0-0.0","75007","1A","conjoined","man","","null","M1 and M3 are talking to each other","talk2","sentence","","","",""
"4919.565000003786","","","survey-likert-extra-labels","62","318682","0.0-25.0-1.0-0.0","75007","1A","conjoined","man","","","M1 and M3 are talking to each other","talk2","rating_causation","{""Q0"":3}","[0]","M1 started a conversation with M3","M3 started a conversation with M1"
"2272.2150000045076","","","survey-likert-extra-labels","63","320963","0.0-25.0-2.0","75007","1A","conjoined","man","","","M1 and M3 are talking to each other","talk2","rating_volition","{""Q0"":3}","[0]","M1 wanted to talk to M3","M3 wanted to talk to M1"
"null","Ruth is chasing Kate","","html-keyboard-response","64","322977","0.0-26.0-0.0","75007","1A","conjoined","man","","null","W1 is chasing W3","chase","sentence","","","",""
"12452.515000011772","","","survey-likert-extra-labels","65","335436","0.0-26.0-2.0","75007","1A","conjoined","man","","","W1 is chasing W3","chase","rating_volition","{""Q0"":0}","[0]","W1 is behind W3","W3 is behind W1"
"8102.149999991525","","","survey-likert-extra-labels","66","343548","0.0-26.0-3.0-0.0","75007","1A","conjoined","man","","","W1 is chasing W3","chase","rating_causation","{""Q0"":6}","[0]","W1 is running away from W3","W3 is running away from W1"
"null","Jane is carrying Beth","","html-keyboard-response","67","345557","0.0-27.0-0.0","75007","1A","conjoined","man","","null","W2 is carrying W4","carry","sentence","","","",""
"8903.954999987036","","","survey-likert-extra-labels","68","354468","0.0-27.0-1.0-0.0","75007","1A","conjoined","man","","","W2 is carrying W4","carry","rating_causation","{""Q0"":6}","[0]","W2 is being moved by W4","W4 is being moved by W2"
"14649.170000004233","","","survey-likert-extra-labels","69","369131","0.0-27.0-2.0","75007","1A","conjoined","man","","","W2 is carrying W4","carry","rating_volition","{""Q0"":0}","[0]","W2 is transporting W4","W4 is transporting W2"
"null","Ruth and Kate are dancing with each other","","html-keyboard-response","70","371151","0.0-28.0-0.0","75007","1A","conjoined","man","","null","W1 and W3 are dancing with each other","dance1","sentence","","","",""
"3716.9299999950454","","","survey-likert-extra-labels","71","374874","0.0-28.0-2.0","75007","1A","conjoined","man","","","W1 and W3 are dancing with each other","dance1","rating_volition","{""Q0"":3}","[0]","W1 wanted to dance with W3","W3 wanted to dance with W1"
"3616.250000006403","","","survey-likert-extra-labels","72","378498","0.0-28.0-3.0-0.0","75007","1A","conjoined","man","","","W1 and W3 are dancing with each other","dance1","rating_causation","{""Q0"":3}","[0]","W1 asked W3 to dance","W3 asked W1 to dance"
"null","Jane and Dave are talking to each other","","html-keyboard-response","73","380513","0.0-29.0-0.0","75007","1A","conjoined","man","","null","W2 and M4 are talking to each other","talk3","sentence","","","",""
"3907.344999999623","","","survey-likert-extra-labels","74","384427","0.0-29.0-2.0","75007","1A","conjoined","man","","","W2 and M4 are talking to each other","talk3","rating_volition","{""Q0"":3}","[0]","W2 wanted to talk to M4","M4 wanted to talk to W2"
"6517.664999992121","","","survey-likert-extra-labels","75","390954","0.0-29.0-3.0-0.0","75007","1A","conjoined","man","","","W2 and M4 are talking to each other","talk3","rating_causation","{""Q0"":3}","[0]","W2 started a conversation with M4","M4 started a conversation with W2"
"null","Jane and Beth are touching each other","","html-keyboard-response","76","392970","0.0-30.0-0.0","75007","1A","conjoined","man","","null","W2 and W4 are touching each other","touch1","sentence","","","",""
"2739.0599999926053","","","survey-likert-extra-labels","77","395715","0.0-30.0-1.0-0.0","75007","1A","conjoined","man","","","W2 and W4 are touching each other","touch1","rating_causation","{""Q0"":3}","[0]","W2 asked to touch W4","W4 asked to touch W2"
"2125.2450000029057","","","survey-likert-extra-labels","78","397850","0.0-30.0-2.0","75007","1A","conjoined","man","","","W2 and W4 are touching each other","touch1","rating_volition","{""Q0"":3}","[0]","W2 wanted to touch W4","W4 wanted to touch W2"
"null","Fred and Ruth are touching each other","","html-keyboard-response","79","399856","0.0-31.0-0.0","75007","1A","conjoined","man","","null","M3 and W1 are touching each other","touch4","sentence","","","",""
"2477.165000003879","","","survey-likert-extra-labels","80","402339","0.0-31.0-1.0-0.0","75007","1A","conjoined","man","","","M3 and W1 are touching each other","touch4","rating_causation","{""Q0"":3}","[0]","M3 asked to touch W1","W1 asked to touch M3"
"2535.245000006398","","","survey-likert-extra-labels","81","404882","0.0-31.0-2.0","75007","1A","conjoined","man","","","M3 and W1 are touching each other","touch4","rating_volition","{""Q0"":3}","[0]","M3 wanted to touch W1","W1 wanted to touch M3"
"null","Luke and Kate are fighting each other","","html-keyboard-response","82","406889","0.0-32.0-0.0","75007","1A","conjoined","man","","null","M1 and W3 are fighting each other","fight3","sentence","","","",""
"3130.555000010645","","","survey-likert-extra-labels","83","410026","0.0-32.0-2.0","75007","1A","conjoined","man","","","M1 and W3 are fighting each other","fight3","rating_volition","{""Q0"":3}","[0]","W3 wanted to fight M1","M1 wanted to fight W3"
"2503.8449999992736","","","survey-likert-extra-labels","84","412538","0.0-32.0-3.0-0.0","75007","1A","conjoined","man","","","M1 and W3 are fighting each other","fight3","rating_causation","{""Q0"":3}","[0]","W3 started the fight with M1","M1 started the fight with W3"
"null","Mike is reminding Beth","","html-keyboard-response","85","414551","0.0-33.0-0.0","75007","1A","conjoined","man","","null","M2 is reminding W4","remind","sentence","","","",""
"22723.905000006198","","","survey-likert-extra-labels","86","437283","0.0-33.0-1.0-0.0","75007","1A","conjoined","man","","","M2 is reminding W4","remind","rating_causation","{""Q0"":5}","[0]","M2 is remembering","W4 is remembering"
"19007.92000000365","","","survey-likert-extra-labels","87","456298","0.0-33.0-2.0","75007","1A","conjoined","man","","","M2 is reminding W4","remind","rating_volition","{""Q0"":1}","[0]","M2 is telling W4 again","W4 is telling M2 again"
"null","Beth and Mike are arguing with each other","","html-keyboard-response","88","458308","0.0-34.0-0.0","75007","1A","conjoined","man","","null","W4 and M2 are arguing with each other","argue4","sentence","","","",""
"3133.750000008149","","","survey-likert-extra-labels","89","461460","0.0-34.0-1.0-0.0","75007","1A","conjoined","man","","","W4 and M2 are arguing with each other","argue4","rating_causation","{""Q0"":3}","[0]","M2 started an argument with W4","W4 started an argument with M2"
"3326.710000008461","","","survey-likert-extra-labels","90","464795","0.0-34.0-2.0","75007","1A","conjoined","man","","","W4 and M2 are arguing with each other","argue4","rating_volition","{""Q0"":3}","[0]","M2 wanted to argue with W4","W4 wanted to argue with M2"
"null","Jane and Beth are flirting with each other","","html-keyboard-response","91","466801","0.0-35.0-0.0","75007","1A","conjoined","man","","null","W2 and W4 are flirting with each other","flirt1","sentence","","","",""
"2393.5549999878276","","","survey-likert-extra-labels","92","469204","0.0-35.0-2.0","75007","1A","conjoined","man","","","W2 and W4 are flirting with each other","flirt1","rating_volition","{""Q0"":3}","[0]","W2 wanted to flirt with W4","W4 wanted to flirt with W2"
"2550.554999994347","","","survey-likert-extra-labels","93","471762","0.0-35.0-3.0-0.0","75007","1A","conjoined","man","","","W2 and W4 are flirting with each other","flirt1","rating_causation","{""Q0"":3}","[0]","W2 started flirting with W4 first","W4 started flirting with W2 first"
"null","Mike and Beth are dancing with each other","","html-keyboard-response","94","473781","0.0-36.0-0.0","75007","1A","conjoined","man","","null","M2 and W4 are dancing with each other","dance4","sentence","","","",""
"2031.3599999935832","","","survey-likert-extra-labels","95","475818","0.0-36.0-1.0-0.0","75007","1A","conjoined","man","","","M2 and W4 are dancing with each other","dance4","rating_causation","{""Q0"":3}","[0]","M2 asked W4 to dance","W4 asked M2 to dance"
"2545.045000006212","","","survey-likert-extra-labels","96","478370","0.0-36.0-2.0","75007","1A","conjoined","man","","","M2 and W4 are dancing with each other","dance4","rating_volition","{""Q0"":3}","[0]","M2 wanted to dance with W4","W4 wanted to dance with M2"
"null","Fred is hiring Ruth","","html-keyboard-response","97","480385","0.0-37.0-0.0","75007","1A","conjoined","man","","null","M3 is hiring W1","hire","sentence","","","",""
"20349.914999998873","","","survey-likert-extra-labels","98","500739","0.0-37.0-1.0-0.0","75007","1A","conjoined","man","","","M3 is hiring W1","hire","rating_causation","{""Q0"":4}","[0]","M3 will work for W1","W1 will work for M3"
"15576.115000003483","","","survey-likert-extra-labels","99","516324","0.0-37.0-2.0","75007","1A","conjoined","man","","","M3 is hiring W1","hire","rating_volition","{""Q0"":0}","[0]","M3 is employing W1","W1 is employing M3"
"null","Fred and Luke are kissing each other","","html-keyboard-response","100","518330","0.0-38.0-0.0","75007","1A","conjoined","man","","null","M3 and M1 are kissing each other","kiss2","sentence","","","",""
"2632.1399999869755","","","survey-likert-extra-labels","101","520970","0.0-38.0-2.0","75007","1A","conjoined","man","","","M3 and M1 are kissing each other","kiss2","rating_volition","{""Q0"":3}","[0]","M1 wanted to kiss M3","M3 wanted to kiss M1"
"2250.2999999996973","","","survey-likert-extra-labels","102","523228","0.0-38.0-3.0-0.0","75007","1A","conjoined","man","","","M3 and M1 are kissing each other","kiss2","rating_causation","{""Q0"":3}","[0]","M1 asked to kiss M3","M3 asked to kiss M1"
"null","Fred and Ruth are flirting with each other","","html-keyboard-response","103","525236","0.0-39.0-0.0","75007","1A","conjoined","man","","null","M3 and W1 are flirting with each other","flirt4","sentence","","","",""
"2967.2600000048988","","","survey-likert-extra-labels","104","528210","0.0-39.0-1.0-0.0","75007","1A","conjoined","man","","","M3 and W1 are flirting with each other","flirt4","rating_causation","{""Q0"":3}","[0]","M3 started flirting with W1 first","W1 started flirting with M3 first"
"2993.5850000038045","","","survey-likert-extra-labels","105","531210","0.0-39.0-2.0","75007","1A","conjoined","man","","","M3 and W1 are flirting with each other","flirt4","rating_volition","{""Q0"":3}","[0]","M3 wanted to flirt with W1","W1 wanted to flirt with M3"
"null","Dave and Jane are kissing each other","","html-keyboard-response","106","533219","0.0-40.0-0.0","75007","1A","conjoined","man","","null","M4 and W2 are kissing each other","kiss4","sentence","","","",""
"3216.215000007651","","","survey-likert-extra-labels","107","536443","0.0-40.0-2.0","75007","1A","conjoined","man","","","M4 and W2 are kissing each other","kiss4","rating_volition","{""Q0"":3}","[0]","W2 wanted to kiss M4","M4 wanted to kiss W2"
"2111.915000001318","","","survey-likert-extra-labels","108","538562","0.0-40.0-3.0-0.0","75007","1A","conjoined","man","","","M4 and W2 are kissing each other","kiss4","rating_causation","{""Q0"":3}","[0]","W2 asked to kiss M4","M4 asked to kiss W2"
"null","Kate and Ruth are kissing each other","","html-keyboard-response","109","540567","0.0-41.0-0.0","75007","1A","conjoined","man","","null","W3 and W1 are kissing each other","kiss1","sentence","","","",""
"2022.160000007716","","","survey-likert-extra-labels","110","542596","0.0-41.0-2.0","75007","1A","conjoined","man","","","W3 and W1 are kissing each other","kiss1","rating_volition","{""Q0"":3}","[0]","W1 wanted to kiss W3","W3 wanted to kiss W1"
"2094.665000011446","","","survey-likert-extra-labels","111","544698","0.0-41.0-3.0-0.0","75007","1A","conjoined","man","","","W3 and W1 are kissing each other","kiss1","rating_causation","{""Q0"":3}","[0]","W1 asked to kiss W3","W3 asked to kiss W1"
"null","Mike is posing for Dave","","html-keyboard-response","112","546704","0.0-42.0-0.0","75007","1A","conjoined","man","","null","M2 is posing for M4","pose","sentence","","","",""
"18932.499999995343","","","survey-likert-extra-labels","113","565642","0.0-42.0-2.0","75007","1A","conjoined","man","","","M2 is posing for M4","pose","rating_volition","{""Q0"":0}","[0]","M2 is modelling for M4","M4 is modelling for M2"
"17549.35500001011","","","survey-likert-extra-labels","114","583204","0.0-42.0-3.0-0.0","75007","1A","conjoined","man","","","M2 is posing for M4","pose","rating_causation","{""Q0"":4}","[0]","M2 is photographing M4","M4 is photographing M2"
"null","Luke and Fred are shouting at each other","","html-keyboard-response","115","585222","0.0-43.0-0.0","75007","1A","conjoined","man","","null","M1 and M3 are shouting at each other","shout2","sentence","","","",""
"2864.350000003469","","","survey-likert-extra-labels","116","588091","0.0-43.0-1.0-0.0","75007","1A","conjoined","man","","","M1 and M3 are shouting at each other","shout2","rating_causation","{""Q0"":3}","[0]","M1 shouted at M3 first","M3 shouted at M1 first"
"1743.3899999887217","","","survey-likert-extra-labels","117","589842","0.0-43.0-2.0","75007","1A","conjoined","man","","","M1 and M3 are shouting at each other","shout2","rating_volition","{""Q0"":3}","[0]","M1 wanted to shout at M3","M3 wanted to shout at M1"
"null","Dave and Jane are arguing with each other","","html-keyboard-response","118","591846","0.0-44.0-0.0","75007","1A","conjoined","man","","null","M4 and W2 are arguing with each other","argue3","sentence","","","",""
"1909.2500000115251","","","survey-likert-extra-labels","119","593762","0.0-44.0-2.0","75007","1A","conjoined","man","","","M4 and W2 are arguing with each other","argue3","rating_volition","{""Q0"":3}","[0]","W2 wanted to argue with M4","M4 wanted to argue with W2"
"2368.450000009034","","","survey-likert-extra-labels","120","596138","0.0-44.0-3.0-0.0","75007","1A","conjoined","man","","","M4 and W2 are arguing with each other","argue3","rating_causation","{""Q0"":3}","[0]","W2 started an argument with M4","M4 started an argument with W2"
"null","Ruth and Fred are marrying each other","","html-keyboard-response","121","598153","0.0-45.0-0.0","75007","1A","conjoined","man","","null","W1 and M3 are marrying each other","marry3","sentence","","","",""
"2155.529999989085","","","survey-likert-extra-labels","122","600314","0.0-45.0-2.0","75007","1A","conjoined","man","","","W1 and M3 are marrying each other","marry3","rating_volition","{""Q0"":3}","[0]","M3 wanted to marry W1","W1 wanted to marry M3"
"2306.784999993397","","","survey-likert-extra-labels","123","602627","0.0-45.0-3.0-0.0","75007","1A","conjoined","man","","","W1 and M3 are marrying each other","marry3","rating_causation","{""Q0"":3}","[0]","M3 asked to marry W1","W1 asked to marry M3"
"null","Kate and Luke are playing with each other","","html-keyboard-response","124","604632","0.0-46.0-0.0","75007","1A","conjoined","man","","null","W3 and M1 are playing with each other","play4","sentence","","","",""
"2235.4250000062166","","","survey-likert-extra-labels","125","606873","0.0-46.0-2.0","75007","1A","conjoined","man","","","W3 and M1 are playing with each other","play4","rating_volition","{""Q0"":3}","[0]","W3 wanted to play with M1","M1 wanted to play with W3"
"2417.4000000057276","","","survey-likert-extra-labels","126","609298","0.0-46.0-3.0-0.0","75007","1A","conjoined","man","","","W3 and M1 are playing with each other","play4","rating_causation","{""Q0"":3}","[0]","W3 asked to play with M1","M1 asked to play with W3"
"null","Mike and Beth are talking to each other","","html-keyboard-response","127","611315","0.0-47.0-0.0","75007","1A","conjoined","man","","null","M2 and W4 are talking to each other","talk4","sentence","","","",""
"4079.8999999969965","","","survey-likert-extra-labels","128","615401","0.0-47.0-1.0-0.0","75007","1A","conjoined","man","","","M2 and W4 are talking to each other","talk4","rating_causation","{""Q0"":3}","[0]","M2 started a conversation with W4","W4 started a conversation with M2"
"11129.749999992782","","","survey-likert-extra-labels","129","626539","0.0-47.0-2.0","75007","1A","conjoined","man","","","M2 and W4 are talking to each other","talk4","rating_volition","{""Q0"":3}","[0]","M2 wanted to talk to W4","W4 wanted to talk to M2"
"null","Kate and Luke are touching each other","","html-keyboard-response","130","628552","0.0-48.0-0.0","75007","1A","conjoined","man","","null","W3 and M1 are touching each other","touch3","sentence","","","",""
"5324.480000010226","","","survey-likert-extra-labels","131","633883","0.0-48.0-2.0","75007","1A","conjoined","man","","","W3 and M1 are touching each other","touch3","rating_volition","{""Q0"":3}","[0]","W3 wanted to touch M1","M1 wanted to touch W3"
"6142.485000003944","","","survey-likert-extra-labels","132","640034","0.0-48.0-3.0-0.0","75007","1A","conjoined","man","","","W3 and M1 are touching each other","touch3","rating_causation","{""Q0"":3}","[0]","W3 asked to touch M1","M1 asked to touch W3"
"null","Kate and Ruth are arguing with each other","","html-keyboard-response","133","642050","0.0-49.0-0.0","75007","1A","conjoined","man","","null","W3 and W1 are arguing with each other","argue1","sentence","","","",""
"5610.049999988405","","","survey-likert-extra-labels","134","647666","0.0-49.0-1.0-0.0","75007","1A","conjoined","man","","","W3 and W1 are arguing with each other","argue1","rating_causation","{""Q0"":3}","[0]","W1 started an argument with W3","W3 started an argument with W1"
"5216.045000008307","","","survey-likert-extra-labels","135","652889","0.0-49.0-2.0","75007","1A","conjoined","man","","","W3 and W1 are arguing with each other","argue1","rating_volition","{""Q0"":3}","[0]","W1 wanted to argue with W3","W3 wanted to argue with W1"
"null","Mike and Dave are playing with each other","","html-keyboard-response","136","654904","0.0-50.0-0.0","75007","1A","conjoined","man","","null","M2 and M4 are playing with each other","play2","sentence","","","",""
"6267.2549999988405","","","survey-likert-extra-labels","137","661177","0.0-50.0-1.0-0.0","75007","1A","conjoined","man","","","M2 and M4 are playing with each other","play2","rating_causation","{""Q0"":3}","[0]","M2 asked to play with M4","M4 asked to play with M2"
"5040.349999995669","","","survey-likert-extra-labels","138","666226","0.0-50.0-2.0","75007","1A","conjoined","man","","","M2 and M4 are playing with each other","play2","rating_volition","{""Q0"":3}","[0]","M2 wanted to play with M4","M4 wanted to play with M2"
"null","Luke is driving Fred","","html-keyboard-response","139","668236","0.0-51.0-0.0","75007","1A","conjoined","man","","null","M1 is driving M3","drive","sentence","","","",""
"10545.660000003409","","","survey-likert-extra-labels","140","678787","0.0-51.0-1.0-0.0","75007","1A","conjoined","man","","","M1 is driving M3","drive","rating_causation","{""Q0"":6}","[0]","M3 is taking M1 somewhere","M1 is taking M3 somewhere"
"9734.955000007176","","","survey-likert-extra-labels","141","688530","0.0-51.0-2.0","75007","1A","conjoined","man","","","M1 is driving M3","drive","rating_volition","{""Q0"":0}","[0]","M3 is M1's passenger","M1 is M3's passenger"
"null","Fred and Ruth are playing with each other","","html-keyboard-response","142","690539","0.0-52.0-0.0","75007","1A","conjoined","man","","null","M3 and W1 are playing with each other","play3","sentence","","","",""
"3927.9650000098627","","","survey-likert-extra-labels","143","694473","0.0-52.0-1.0-0.0","75007","1A","conjoined","man","","","M3 and W1 are playing with each other","play3","rating_causation","{""Q0"":3}","[0]","M3 asked to play with W1","W1 asked to play with M3"
"4449.789999998757","","","survey-likert-extra-labels","144","698930","0.0-52.0-2.0","75007","1A","conjoined","man","","","M3 and W1 are playing with each other","play3","rating_volition","{""Q0"":3}","[0]","M3 wanted to play with W1","W1 wanted to play with M3"
"null","Luke and Fred are dancing with each other","","html-keyboard-response","145","700936","0.0-53.0-0.0","75007","1A","conjoined","man","","null","M1 and M3 are dancing with each other","dance2","sentence","","","",""
"3101.2099999934435","","","survey-likert-extra-labels","146","704043","0.0-53.0-1.0-0.0","75007","1A","conjoined","man","","","M1 and M3 are dancing with each other","dance2","rating_causation","{""Q0"":3}","[0]","M1 asked M3 to dance","M3 asked M1 to dance"
"4527.245000004768","","","survey-likert-extra-labels","147","708577","0.0-53.0-2.0","75007","1A","conjoined","man","","","M1 and M3 are dancing with each other","dance2","rating_volition","{""Q0"":3}","[0]","M1 wanted to dance with M3","M3 wanted to dance with M1"
"null","Beth and Jane are marrying each other","","html-keyboard-response","148","710583","0.0-54.0-0.0","75007","1A","conjoined","man","","null","W4 and W2 are marrying each other","marry1","sentence","","","",""
"3885.039999993751","","","survey-likert-extra-labels","149","714474","0.0-54.0-2.0","75007","1A","conjoined","man","","","W4 and W2 are marrying each other","marry1","rating_volition","{""Q0"":3}","[0]","W2 wanted to marry W4","W4 wanted to marry W2"
"2744.189999997616","","","survey-likert-extra-labels","150","717226","0.0-54.0-3.0-0.0","75007","1A","conjoined","man","","","W4 and W2 are marrying each other","marry1","rating_causation","{""Q0"":3}","[0]","W2 asked to marry W4","W4 asked to marry W2"
"3530.559999999241","<p>Thank you for completing that task.</p><p>The final part of this session is a short questionnaire.</p><p>Press Continue.</p>","0","html-button-response","151","720762","0.0-55.0","75007","1A","conjoined","man","","","","","","","","",""
"53057.044999994105","","","survey-text","152","774860","0.0-56.0","75007","1A","conjoined","man","","","","","demographics","{""Q0"":""69"",""Q1"":""English"",""Q2"":""English"",""Q3"":""United Kingdom"",""Q4"":""British"",""Q5"":""White Caucasian"",""Q6"":""Male""}","","",""
"2398.6349999904633","<p>Have you lived in the UK for the last 5 years or more?</p>","0","html-button-response","153","777264","0.0-57.0","75007","1A","conjoined","man","","","","","fiveyears","","","",""
"22260.21999999648","","","survey-text","154","800546","0.0-58.0","75007","1A","conjoined","man","","","","","worker_id","{""Q0"":""5c4afb7234ee9300011cbbfc""}","","",""
"7118.304999996326","","","external-html","155","807817","0.0-59.0","75007","1A","conjoined","man","debrief.html","","","","","","","",""
