"rt","stimulus","button_pressed","trial_type","trial_index","time_elapsed","internal_node_id","subject","list","condition","ppt_gender","url","key_press","sentence_type","verb","test_part","responses","question_order","left_part","right_part"
"2485","Welcome to the experiment. Press Continue to begin.","0","html-button-response","0","2490","0.0-0.0","76255","3A","conjoined","man","","","","","","","","",""
"25699","","","external-html","1","29244","0.0-1.0","76255","3A","conjoined","man","consent.html","","","","","","","",""
"11148","<p>Welcome.</p><p>In this experiment we will ask you to imagine some situations.</p><p>Each trial starts with a description of an event.</p><p>Then you will see alternative descriptions of that event, and you will rate on a scale how best they match the original description.</p><p>You will give your answer by clicking a button on a rating scale.</p><p>To do this task, you will have to use your imagination to visualise these events.</p><br><p>Ready?</p>","0","html-button-response","2","40398","0.0-2.0","76255","3A","conjoined","man","","","","","","","","",""
"2688","<p>Before the experiment starts, you will watch an example trial. Press 'Continue'.</p>","0","html-button-response","3","44105","0.0-3.0","76255","3A","conjoined","man","","","","","","","","",""
"null","The police officer is arresting the robber","","html-keyboard-response","4","47129","0.0-4.0","76255","3A","conjoined","man","","null","","","","","","",""
"11472","<img src='img/Example-trial.jpg' style='height:550px;''></img>","0","html-button-response","5","58603","0.0-5.0","76255","3A","conjoined","man","","","","","","","","",""
"1730","<p>Ready to start the experiment?</p><br><p><strong>Remember to give an answer by clicking a button on the rating scale.</strong></p><p>Press 'Continue' to begin.</p>","0","html-button-response","6","61350","0.0-6.0","76255","3A","conjoined","man","","","","","","","","",""
"null","Mike and Dave are fighting each other","","html-keyboard-response","7","64372","0.0-7.0-0.0","76255","3A","conjoined","man","","null","M2 and M4 are fighting each other","fight2","sentence","","","",""
"8338","","","survey-likert-extra-labels","8","72716","0.0-7.0-1.0-0.0","76255","3A","conjoined","man","","","M2 and M4 are fighting each other","fight2","rating_causation","{""Q0"":3}","[0]","M2 started the fight with M4","M4 started the fight with M2"
"4590","","","survey-likert-extra-labels","9","77319","0.0-7.0-2.0","76255","3A","conjoined","man","","","M2 and M4 are fighting each other","fight2","rating_volition","{""Q0"":3}","[0]","M2 wanted to fight M4","M4 wanted to fight M2"
"null","Kate and Luke are marrying each other","","html-keyboard-response","10","79337","0.0-8.0-0.0","76255","3A","conjoined","man","","null","W3 and M1 are marrying each other","marry4","sentence","","","",""
"11539","","","survey-likert-extra-labels","11","90880","0.0-8.0-2.0","76255","3A","conjoined","man","","","W3 and M1 are marrying each other","marry4","rating_volition","{""Q0"":2}","[0]","W3 wanted to marry M1","M1 wanted to marry W3"
"4808","","","survey-likert-extra-labels","12","95697","0.0-8.0-3.0-0.0","76255","3A","conjoined","man","","","W3 and M1 are marrying each other","marry4","rating_causation","{""Q0"":2}","[0]","W3 asked to marry M1","M1 asked to marry W3"
"null","Jane and Dave are kissing each other","","html-keyboard-response","13","97714","0.0-9.0-0.0","76255","3A","conjoined","man","","null","W2 and M4 are kissing each other","kiss4","sentence","","","",""
"10391","","","survey-likert-extra-labels","14","108109","0.0-9.0-1.0-0.0","76255","3A","conjoined","man","","","W2 and M4 are kissing each other","kiss4","rating_causation","{""Q0"":1}","[0]","W2 asked to kiss M4","M4 asked to kiss W2"
"5325","","","survey-likert-extra-labels","15","113441","0.0-9.0-2.0","76255","3A","conjoined","man","","","W2 and M4 are kissing each other","kiss4","rating_volition","{""Q0"":1}","[0]","W2 wanted to kiss M4","M4 wanted to kiss W2"
"null","Kate and Ruth are shouting at each other","","html-keyboard-response","16","115453","0.0-10.0-0.0","76255","3A","conjoined","man","","null","W3 and W1 are shouting at each other","shout1","sentence","","","",""
"6433","","","survey-likert-extra-labels","17","121890","0.0-10.0-1.0-0.0","76255","3A","conjoined","man","","","W3 and W1 are shouting at each other","shout1","rating_causation","{""Q0"":4}","[0]","W1 shouted at W3 first","W3 shouted at W1 first"
"4641","","","survey-likert-extra-labels","18","126541","0.0-10.0-2.0","76255","3A","conjoined","man","","","W3 and W1 are shouting at each other","shout1","rating_volition","{""Q0"":4}","[0]","W1 wanted to shout at W3","W3 wanted to shout at W1"
"null","Dave and Jane are talking to each other","","html-keyboard-response","19","128558","0.0-11.0-0.0","76255","3A","conjoined","man","","null","M4 and W2 are talking to each other","talk3","sentence","","","",""
"7881","","","survey-likert-extra-labels","20","136444","0.0-11.0-2.0","76255","3A","conjoined","man","","","M4 and W2 are talking to each other","talk3","rating_volition","{""Q0"":0}","[0]","W2 wanted to talk to M4","M4 wanted to talk to W2"
"6770","","","survey-likert-extra-labels","21","143228","0.0-11.0-3.0-0.0","76255","3A","conjoined","man","","","M4 and W2 are talking to each other","talk3","rating_causation","{""Q0"":0}","[0]","W2 started a conversation with M4","M4 started a conversation with W2"
"null","Dave and Mike are touching each other","","html-keyboard-response","22","145246","0.0-12.0-0.0","76255","3A","conjoined","man","","null","M4 and M2 are touching each other","touch2","sentence","","","",""
"4956","","","survey-likert-extra-labels","23","150208","0.0-12.0-2.0","76255","3A","conjoined","man","","","M4 and M2 are touching each other","touch2","rating_volition","{""Q0"":1}","[0]","M2 wanted to touch M4","M4 wanted to touch M2"
"6565","","","survey-likert-extra-labels","24","156785","0.0-12.0-3.0-0.0","76255","3A","conjoined","man","","","M4 and M2 are touching each other","touch2","rating_causation","{""Q0"":2}","[0]","M2 asked to touch M4","M4 asked to touch M2"
"null","Beth and Jane are flirting with each other","","html-keyboard-response","25","158804","0.0-13.0-0.0","76255","3A","conjoined","man","","null","W4 and W2 are flirting with each other","flirt1","sentence","","","",""
"14821","","","survey-likert-extra-labels","26","173630","0.0-13.0-1.0-0.0","76255","3A","conjoined","man","","","W4 and W2 are flirting with each other","flirt1","rating_causation","{""Q0"":1}","[0]","W2 started flirting with W4 first","W4 started flirting with W2 first"
"4530","","","survey-likert-extra-labels","27","178171","0.0-13.0-2.0","76255","3A","conjoined","man","","","W4 and W2 are flirting with each other","flirt1","rating_volition","{""Q0"":0}","[0]","W2 wanted to flirt with W4","W4 wanted to flirt with W2"
"null","Fred and Luke are dancing with each other","","html-keyboard-response","28","180196","0.0-14.0-0.0","76255","3A","conjoined","man","","null","M3 and M1 are dancing with each other","dance2","sentence","","","",""
"9499","","","survey-likert-extra-labels","29","189701","0.0-14.0-2.0","76255","3A","conjoined","man","","","M3 and M1 are dancing with each other","dance2","rating_volition","{""Q0"":5}","[0]","M1 wanted to dance with M3","M3 wanted to dance with M1"
"8276","","","survey-likert-extra-labels","30","197990","0.0-14.0-3.0-0.0","76255","3A","conjoined","man","","","M3 and M1 are dancing with each other","dance2","rating_causation","{""Q0"":6}","[0]","M1 asked M3 to dance","M3 asked M1 to dance"
"null","Jane and Beth are fighting each other","","html-keyboard-response","31","199998","0.0-15.0-0.0","76255","3A","conjoined","man","","null","W2 and W4 are fighting each other","fight1","sentence","","","",""
"13770","","","survey-likert-extra-labels","32","213774","0.0-15.0-2.0","76255","3A","conjoined","man","","","W2 and W4 are fighting each other","fight1","rating_volition","{""Q0"":5}","[0]","W2 wanted to fight W4","W4 wanted to fight W2"
"6059","","","survey-likert-extra-labels","33","219842","0.0-15.0-3.0-0.0","76255","3A","conjoined","man","","","W2 and W4 are fighting each other","fight1","rating_causation","{""Q0"":5}","[0]","W2 started the fight with W4","W4 started the fight with W2"
"null","Luke and Kate are flirting with each other","","html-keyboard-response","34","221860","0.0-16.0-0.0","76255","3A","conjoined","man","","null","M1 and W3 are flirting with each other","flirt3","sentence","","","",""
"3761","","","survey-likert-extra-labels","35","225625","0.0-16.0-2.0","76255","3A","conjoined","man","","","M1 and W3 are flirting with each other","flirt3","rating_volition","{""Q0"":1}","[0]","W3 wanted to flirt with M1","M1 wanted to flirt with W3"
"4597","","","survey-likert-extra-labels","36","230230","0.0-16.0-3.0-0.0","76255","3A","conjoined","man","","","M1 and W3 are flirting with each other","flirt3","rating_causation","{""Q0"":5}","[0]","W3 started flirting with M1 first","M1 started flirting with W3 first"
"null","Mike and Beth are arguing with each other","","html-keyboard-response","37","232243","0.0-17.0-0.0","76255","3A","conjoined","man","","null","M2 and W4 are arguing with each other","argue4","sentence","","","",""
"5322","","","survey-likert-extra-labels","38","237570","0.0-17.0-2.0","76255","3A","conjoined","man","","","M2 and W4 are arguing with each other","argue4","rating_volition","{""Q0"":5}","[0]","M2 wanted to argue with W4","W4 wanted to argue with M2"
"6220","","","survey-likert-extra-labels","39","243805","0.0-17.0-3.0-0.0","76255","3A","conjoined","man","","","M2 and W4 are arguing with each other","argue4","rating_causation","{""Q0"":5}","[0]","M2 started an argument with W4","W4 started an argument with M2"
"null","Beth and Mike are dancing with each other","","html-keyboard-response","40","245818","0.0-18.0-0.0","76255","3A","conjoined","man","","null","W4 and M2 are dancing with each other","dance4","sentence","","","",""
"15364","","","survey-likert-extra-labels","41","261189","0.0-18.0-2.0","76255","3A","conjoined","man","","","W4 and M2 are dancing with each other","dance4","rating_volition","{""Q0"":4}","[0]","M2 wanted to dance with W4","W4 wanted to dance with M2"
"6065","","","survey-likert-extra-labels","42","267263","0.0-18.0-3.0-0.0","76255","3A","conjoined","man","","","W4 and M2 are dancing with each other","dance4","rating_causation","{""Q0"":1}","[0]","M2 asked W4 to dance","W4 asked M2 to dance"
"null","Luke and Fred are kissing each other","","html-keyboard-response","43","269278","0.0-19.0-0.0","76255","3A","conjoined","man","","null","M1 and M3 are kissing each other","kiss2","sentence","","","",""
"4418","","","survey-likert-extra-labels","44","273701","0.0-19.0-2.0","76255","3A","conjoined","man","","","M1 and M3 are kissing each other","kiss2","rating_volition","{""Q0"":3}","[0]","M1 wanted to kiss M3","M3 wanted to kiss M1"
"6088","","","survey-likert-extra-labels","45","279797","0.0-19.0-3.0-0.0","76255","3A","conjoined","man","","","M1 and M3 are kissing each other","kiss2","rating_causation","{""Q0"":0}","[0]","M1 asked to kiss M3","M3 asked to kiss M1"
"null","Kate and Luke are fighting each other","","html-keyboard-response","46","281811","0.0-20.0-0.0","76255","3A","conjoined","man","","null","W3 and M1 are fighting each other","fight3","sentence","","","",""
"5949","","","survey-likert-extra-labels","47","287763","0.0-20.0-2.0","76255","3A","conjoined","man","","","W3 and M1 are fighting each other","fight3","rating_volition","{""Q0"":4}","[0]","W3 wanted to fight M1","M1 wanted to fight W3"
"3645","","","survey-likert-extra-labels","48","291416","0.0-20.0-3.0-0.0","76255","3A","conjoined","man","","","W3 and M1 are fighting each other","fight3","rating_causation","{""Q0"":5}","[0]","W3 started the fight with M1","M1 started the fight with W3"
"null","Dave and Jane are shouting at each other","","html-keyboard-response","49","293430","0.0-21.0-0.0","76255","3A","conjoined","man","","null","M4 and W2 are shouting at each other","shout4","sentence","","","",""
"5208","","","survey-likert-extra-labels","50","298643","0.0-21.0-1.0-0.0","76255","3A","conjoined","man","","","M4 and W2 are shouting at each other","shout4","rating_causation","{""Q0"":2}","[0]","W2 shouted at M4 first","M4 shouted at W2 first"
"3146","","","survey-likert-extra-labels","51","301801","0.0-21.0-2.0","76255","3A","conjoined","man","","","M4 and W2 are shouting at each other","shout4","rating_volition","{""Q0"":1}","[0]","W2 wanted to shout at M4","M4 wanted to shout at W2"
"null","Fred and Luke are shouting at each other","","html-keyboard-response","52","303823","0.0-22.0-0.0","76255","3A","conjoined","man","","null","M3 and M1 are shouting at each other","shout2","sentence","","","",""
"35429","","","survey-likert-extra-labels","53","339262","0.0-22.0-1.0-0.0","76255","3A","conjoined","man","","","M3 and M1 are shouting at each other","shout2","rating_causation","{""Q0"":0}","[0]","M1 shouted at M3 first","M3 shouted at M1 first"
"4360","","","survey-likert-extra-labels","54","343631","0.0-22.0-2.0","76255","3A","conjoined","man","","","M3 and M1 are shouting at each other","shout2","rating_volition","{""Q0"":1}","[0]","M1 wanted to shout at M3","M3 wanted to shout at M1"
"null","Dave and Mike are playing with each other","","html-keyboard-response","55","345644","0.0-23.0-0.0","76255","3A","conjoined","man","","null","M4 and M2 are playing with each other","play2","sentence","","","",""
"15928","","","survey-likert-extra-labels","56","361577","0.0-23.0-1.0-0.0","76255","3A","conjoined","man","","","M4 and M2 are playing with each other","play2","rating_causation","{""Q0"":4}","[0]","M2 asked to play with M4","M4 asked to play with M2"
"4037","","","survey-likert-extra-labels","57","365629","0.0-23.0-2.0","76255","3A","conjoined","man","","","M4 and M2 are playing with each other","play2","rating_volition","{""Q0"":3}","[0]","M2 wanted to play with M4","M4 wanted to play with M2"
"null","Fred is hiring Ruth","","html-keyboard-response","58","367648","0.0-24.0-0.0","76255","3A","conjoined","man","","null","M3 is hiring W1","hire","sentence","","","",""
"10220","","","survey-likert-extra-labels","59","377873","0.0-24.0-1.0-0.0","76255","3A","conjoined","man","","","M3 is hiring W1","hire","rating_causation","{""Q0"":6}","[0]","M3 will work for W1","W1 will work for M3"
"4905","","","survey-likert-extra-labels","60","382785","0.0-24.0-2.0","76255","3A","conjoined","man","","","M3 is hiring W1","hire","rating_volition","{""Q0"":0}","[0]","M3 is employing W1","W1 is employing M3"
"null","Mike and Beth are kissing each other","","html-keyboard-response","61","384801","0.0-25.0-0.0","76255","3A","conjoined","man","","null","M2 and W4 are kissing each other","kiss3","sentence","","","",""
"5168","","","survey-likert-extra-labels","62","389976","0.0-25.0-2.0","76255","3A","conjoined","man","","","M2 and W4 are kissing each other","kiss3","rating_volition","{""Q0"":5}","[0]","M2 wanted to kiss W4","W4 wanted to kiss M2"
"9686","","","survey-likert-extra-labels","63","399675","0.0-25.0-3.0-0.0","76255","3A","conjoined","man","","","M2 and W4 are kissing each other","kiss3","rating_causation","{""Q0"":1}","[0]","M2 asked to kiss W4","W4 asked to kiss M2"
"null","Jane is carrying Beth","","html-keyboard-response","64","401685","0.0-26.0-0.0","76255","3A","conjoined","man","","null","W2 is carrying W4","carry","sentence","","","",""
"3627","","","survey-likert-extra-labels","65","405319","0.0-26.0-2.0","76255","3A","conjoined","man","","","W2 is carrying W4","carry","rating_volition","{""Q0"":0}","[0]","W2 is transporting W4","W4 is transporting W2"
"4630","","","survey-likert-extra-labels","66","409965","0.0-26.0-3.0-0.0","76255","3A","conjoined","man","","","W2 is carrying W4","carry","rating_causation","{""Q0"":6}","[0]","W2 is being moved by W4","W4 is being moved by W2"
"null","Jane and Dave are arguing with each other","","html-keyboard-response","67","411985","0.0-27.0-0.0","76255","3A","conjoined","man","","null","W2 and M4 are arguing with each other","argue3","sentence","","","",""
"9704","","","survey-likert-extra-labels","68","421694","0.0-27.0-2.0","76255","3A","conjoined","man","","","W2 and M4 are arguing with each other","argue3","rating_volition","{""Q0"":3}","[0]","W2 wanted to argue with M4","M4 wanted to argue with W2"
"3795","","","survey-likert-extra-labels","69","425503","0.0-27.0-3.0-0.0","76255","3A","conjoined","man","","","W2 and M4 are arguing with each other","argue3","rating_causation","{""Q0"":2}","[0]","W2 started an argument with M4","M4 started an argument with W2"
"null","Ruth is chasing Kate","","html-keyboard-response","70","427524","0.0-28.0-0.0","76255","3A","conjoined","man","","null","W1 is chasing W3","chase","sentence","","","",""
"8453","","","survey-likert-extra-labels","71","435981","0.0-28.0-2.0","76255","3A","conjoined","man","","","W1 is chasing W3","chase","rating_volition","{""Q0"":0}","[0]","W1 is behind W3","W3 is behind W1"
"33091","","","survey-likert-extra-labels","72","469084","0.0-28.0-3.0-0.0","76255","3A","conjoined","man","","","W1 is chasing W3","chase","rating_causation","{""Q0"":6}","[0]","W1 is running away from W3","W3 is running away from W1"
"null","Kate and Ruth are talking to each other","","html-keyboard-response","73","471101","0.0-29.0-0.0","76255","3A","conjoined","man","","null","W3 and W1 are talking to each other","talk1","sentence","","","",""
"5836","","","survey-likert-extra-labels","74","476945","0.0-29.0-1.0-0.0","76255","3A","conjoined","man","","","W3 and W1 are talking to each other","talk1","rating_causation","{""Q0"":1}","[0]","W1 started a conversation with W3","W3 started a conversation with W1"
"4897","","","survey-likert-extra-labels","75","481858","0.0-29.0-2.0","76255","3A","conjoined","man","","","W3 and W1 are talking to each other","talk1","rating_volition","{""Q0"":0}","[0]","W1 wanted to talk to W3","W3 wanted to talk to W1"
"null","Jane and Beth are marrying each other","","html-keyboard-response","76","483871","0.0-30.0-0.0","76255","3A","conjoined","man","","null","W2 and W4 are marrying each other","marry1","sentence","","","",""
"3294","","","survey-likert-extra-labels","77","487169","0.0-30.0-2.0","76255","3A","conjoined","man","","","W2 and W4 are marrying each other","marry1","rating_volition","{""Q0"":3}","[0]","W2 wanted to marry W4","W4 wanted to marry W2"
"7105","","","survey-likert-extra-labels","78","494284","0.0-30.0-3.0-0.0","76255","3A","conjoined","man","","","W2 and W4 are marrying each other","marry1","rating_causation","{""Q0"":6}","[0]","W2 asked to marry W4","W4 asked to marry W2"
"null","Fred and Ruth are marrying each other","","html-keyboard-response","79","496309","0.0-31.0-0.0","76255","3A","conjoined","man","","null","M3 and W1 are marrying each other","marry3","sentence","","","",""
"2819","","","survey-likert-extra-labels","80","499135","0.0-31.0-1.0-0.0","76255","3A","conjoined","man","","","M3 and W1 are marrying each other","marry3","rating_causation","{""Q0"":0}","[0]","M3 asked to marry W1","W1 asked to marry M3"
"4178","","","survey-likert-extra-labels","81","503321","0.0-31.0-2.0","76255","3A","conjoined","man","","","M3 and W1 are marrying each other","marry3","rating_volition","{""Q0"":3}","[0]","M3 wanted to marry W1","W1 wanted to marry M3"
"null","Kate and Ruth are dancing with each other","","html-keyboard-response","82","505329","0.0-32.0-0.0","76255","3A","conjoined","man","","null","W3 and W1 are dancing with each other","dance1","sentence","","","",""
"4844","","","survey-likert-extra-labels","83","510176","0.0-32.0-2.0","76255","3A","conjoined","man","","","W3 and W1 are dancing with each other","dance1","rating_volition","{""Q0"":3}","[0]","W1 wanted to dance with W3","W3 wanted to dance with W1"
"4201","","","survey-likert-extra-labels","84","514388","0.0-32.0-3.0-0.0","76255","3A","conjoined","man","","","W3 and W1 are dancing with each other","dance1","rating_causation","{""Q0"":1}","[0]","W1 asked W3 to dance","W3 asked W1 to dance"
"null","Beth and Jane are touching each other","","html-keyboard-response","85","516395","0.0-33.0-0.0","76255","3A","conjoined","man","","null","W4 and W2 are touching each other","touch1","sentence","","","",""
"5864","","","survey-likert-extra-labels","86","522262","0.0-33.0-1.0-0.0","76255","3A","conjoined","man","","","W4 and W2 are touching each other","touch1","rating_causation","{""Q0"":6}","[0]","W2 asked to touch W4","W4 asked to touch W2"
"11733","","","survey-likert-extra-labels","87","533999","0.0-33.0-2.0","76255","3A","conjoined","man","","","W4 and W2 are touching each other","touch1","rating_volition","{""Q0"":3}","[0]","W2 wanted to touch W4","W4 wanted to touch W2"
"null","Jane is teaching Dave","","html-keyboard-response","88","536018","0.0-34.0-0.0","76255","3A","conjoined","man","","null","W2 is teaching M4","teach","sentence","","","",""
"3023","","","survey-likert-extra-labels","89","539045","0.0-34.0-1.0-0.0","76255","3A","conjoined","man","","","W2 is teaching M4","teach","rating_causation","{""Q0"":6}","[0]","W2 is learning from M4","M4 is learning from W2"
"3801","","","survey-likert-extra-labels","90","542852","0.0-34.0-2.0","76255","3A","conjoined","man","","","W2 is teaching M4","teach","rating_volition","{""Q0"":0}","[0]","W2 is educating M4","M4 is educating W2"
"null","Dave and Mike are flirting with each other","","html-keyboard-response","91","544860","0.0-35.0-0.0","76255","3A","conjoined","man","","null","M4 and M2 are flirting with each other","flirt2","sentence","","","",""
"3944","","","survey-likert-extra-labels","92","548810","0.0-35.0-2.0","76255","3A","conjoined","man","","","M4 and M2 are flirting with each other","flirt2","rating_volition","{""Q0"":3}","[0]","M2 wanted to flirt with M4","M4 wanted to flirt with M2"
"6367","","","survey-likert-extra-labels","93","555184","0.0-35.0-3.0-0.0","76255","3A","conjoined","man","","","M4 and M2 are flirting with each other","flirt2","rating_causation","{""Q0"":0}","[0]","M2 started flirting with M4 first","M4 started flirting with M2 first"
"null","Mike is posing for Dave","","html-keyboard-response","94","557194","0.0-36.0-0.0","76255","3A","conjoined","man","","null","M2 is posing for M4","pose","sentence","","","",""
"5229","","","survey-likert-extra-labels","95","562429","0.0-36.0-1.0-0.0","76255","3A","conjoined","man","","","M2 is posing for M4","pose","rating_causation","{""Q0"":6}","[0]","M2 is photographing M4","M4 is photographing M2"
"5431","","","survey-likert-extra-labels","96","567876","0.0-36.0-2.0","76255","3A","conjoined","man","","","M2 is posing for M4","pose","rating_volition","{""Q0"":0}","[0]","M2 is modelling for M4","M4 is modelling for M2"
"null","Dave and Jane are dancing with each other","","html-keyboard-response","97","569893","0.0-37.0-0.0","76255","3A","conjoined","man","","null","M4 and W2 are dancing with each other","dance3","sentence","","","",""
"8247","","","survey-likert-extra-labels","98","578146","0.0-37.0-1.0-0.0","76255","3A","conjoined","man","","","M4 and W2 are dancing with each other","dance3","rating_causation","{""Q0"":0}","[0]","W2 asked M4 to dance","M4 asked W2 to dance"
"9095","","","survey-likert-extra-labels","99","587251","0.0-37.0-2.0","76255","3A","conjoined","man","","","M4 and W2 are dancing with each other","dance3","rating_volition","{""Q0"":1}","[0]","W2 wanted to dance with M4","M4 wanted to dance with W2"
"null","Kate is feeding Luke","","html-keyboard-response","100","589270","0.0-38.0-0.0","76255","3A","conjoined","man","","null","W3 is feeding M1","feed","sentence","","","",""
"3536","","","survey-likert-extra-labels","101","592812","0.0-38.0-1.0-0.0","76255","3A","conjoined","man","","","W3 is feeding M1","feed","rating_causation","{""Q0"":6}","[0]","W3 is eating M1's food","M1 is eating W3's food"
"3177","","","survey-likert-extra-labels","102","595999","0.0-38.0-2.0","76255","3A","conjoined","man","","","W3 is feeding M1","feed","rating_volition","{""Q0"":0}","[0]","W3 is giving M1 food","M1 is giving W3 food"
"null","Luke and Fred are arguing with each other","","html-keyboard-response","103","598018","0.0-39.0-0.0","76255","3A","conjoined","man","","null","M1 and M3 are arguing with each other","argue2","sentence","","","",""
"3587","","","survey-likert-extra-labels","104","601612","0.0-39.0-1.0-0.0","76255","3A","conjoined","man","","","M1 and M3 are arguing with each other","argue2","rating_causation","{""Q0"":0}","[0]","M1 started an argument with M3","M3 started an argument with M1"
"11778","","","survey-likert-extra-labels","105","613404","0.0-39.0-2.0","76255","3A","conjoined","man","","","M1 and M3 are arguing with each other","argue2","rating_volition","{""Q0"":2}","[0]","M1 wanted to argue with M3","M3 wanted to argue with M1"
"null","Ruth and Fred are touching each other","","html-keyboard-response","106","615427","0.0-40.0-0.0","76255","3A","conjoined","man","","null","W1 and M3 are touching each other","touch4","sentence","","","",""
"4784","","","survey-likert-extra-labels","107","620217","0.0-40.0-2.0","76255","3A","conjoined","man","","","W1 and M3 are touching each other","touch4","rating_volition","{""Q0"":2}","[0]","M3 wanted to touch W1","W1 wanted to touch M3"
"8563","","","survey-likert-extra-labels","108","628789","0.0-40.0-3.0-0.0","76255","3A","conjoined","man","","","W1 and M3 are touching each other","touch4","rating_causation","{""Q0"":0}","[0]","M3 asked to touch W1","W1 asked to touch M3"
"null","Fred and Ruth are fighting each other","","html-keyboard-response","109","630811","0.0-41.0-0.0","76255","3A","conjoined","man","","null","M3 and W1 are fighting each other","fight4","sentence","","","",""
"17726","","","survey-likert-extra-labels","110","648545","0.0-41.0-1.0-0.0","76255","3A","conjoined","man","","","M3 and W1 are fighting each other","fight4","rating_causation","{""Q0"":0}","[0]","M3 started the fight with W1","W1 started the fight with M3"
"5488","","","survey-likert-extra-labels","111","654047","0.0-41.0-2.0","76255","3A","conjoined","man","","","M3 and W1 are fighting each other","fight4","rating_volition","{""Q0"":0}","[0]","M3 wanted to fight W1","W1 wanted to fight M3"
"null","Luke and Kate are playing with each other","","html-keyboard-response","112","656065","0.0-42.0-0.0","76255","3A","conjoined","man","","null","M1 and W3 are playing with each other","play4","sentence","","","",""
"12017","","","survey-likert-extra-labels","113","668088","0.0-42.0-1.0-0.0","76255","3A","conjoined","man","","","M1 and W3 are playing with each other","play4","rating_causation","{""Q0"":2}","[0]","W3 asked to play with M1","M1 asked to play with W3"
"4094","","","survey-likert-extra-labels","114","672197","0.0-42.0-2.0","76255","3A","conjoined","man","","","M1 and W3 are playing with each other","play4","rating_volition","{""Q0"":1}","[0]","W3 wanted to play with M1","M1 wanted to play with W3"
"null","Ruth and Kate are arguing with each other","","html-keyboard-response","115","674213","0.0-43.0-0.0","76255","3A","conjoined","man","","null","W1 and W3 are arguing with each other","argue1","sentence","","","",""
"4064","","","survey-likert-extra-labels","116","678282","0.0-43.0-1.0-0.0","76255","3A","conjoined","man","","","W1 and W3 are arguing with each other","argue1","rating_causation","{""Q0"":2}","[0]","W1 started an argument with W3","W3 started an argument with W1"
"4580","","","survey-likert-extra-labels","117","682871","0.0-43.0-2.0","76255","3A","conjoined","man","","","W1 and W3 are arguing with each other","argue1","rating_volition","{""Q0"":2}","[0]","W1 wanted to argue with W3","W3 wanted to argue with W1"
"null","Ruth and Kate are kissing each other","","html-keyboard-response","118","684880","0.0-44.0-0.0","76255","3A","conjoined","man","","null","W1 and W3 are kissing each other","kiss1","sentence","","","",""
"6400","","","survey-likert-extra-labels","119","691284","0.0-44.0-1.0-0.0","76255","3A","conjoined","man","","","W1 and W3 are kissing each other","kiss1","rating_causation","{""Q0"":0}","[0]","W1 asked to kiss W3","W3 asked to kiss W1"
"5317","","","survey-likert-extra-labels","120","696618","0.0-44.0-2.0","76255","3A","conjoined","man","","","W1 and W3 are kissing each other","kiss1","rating_volition","{""Q0"":5}","[0]","W1 wanted to kiss W3","W3 wanted to kiss W1"
"null","Ruth and Fred are playing with each other","","html-keyboard-response","121","698632","0.0-45.0-0.0","76255","3A","conjoined","man","","null","W1 and M3 are playing with each other","play3","sentence","","","",""
"4536","","","survey-likert-extra-labels","122","703171","0.0-45.0-1.0-0.0","76255","3A","conjoined","man","","","W1 and M3 are playing with each other","play3","rating_causation","{""Q0"":4}","[0]","M3 asked to play with W1","W1 asked to play with M3"
"4257","","","survey-likert-extra-labels","123","707438","0.0-45.0-2.0","76255","3A","conjoined","man","","","W1 and M3 are playing with each other","play3","rating_volition","{""Q0"":5}","[0]","M3 wanted to play with W1","W1 wanted to play with M3"
"null","Fred and Luke are talking to each other","","html-keyboard-response","124","709450","0.0-46.0-0.0","76255","3A","conjoined","man","","null","M3 and M1 are talking to each other","talk2","sentence","","","",""
"4086","","","survey-likert-extra-labels","125","713539","0.0-46.0-2.0","76255","3A","conjoined","man","","","M3 and M1 are talking to each other","talk2","rating_volition","{""Q0"":3}","[0]","M1 wanted to talk to M3","M3 wanted to talk to M1"
"4934","","","survey-likert-extra-labels","126","718481","0.0-46.0-3.0-0.0","76255","3A","conjoined","man","","","M3 and M1 are talking to each other","talk2","rating_causation","{""Q0"":0}","[0]","M1 started a conversation with M3","M3 started a conversation with M1"
"null","Luke is driving Fred","","html-keyboard-response","127","720493","0.0-47.0-0.0","76255","3A","conjoined","man","","null","M1 is driving M3","drive","sentence","","","",""
"6091","","","survey-likert-extra-labels","128","726588","0.0-47.0-1.0-0.0","76255","3A","conjoined","man","","","M1 is driving M3","drive","rating_causation","{""Q0"":6}","[0]","M3 is taking M1 somewhere","M1 is taking M3 somewhere"
"4352","","","survey-likert-extra-labels","129","730945","0.0-47.0-2.0","76255","3A","conjoined","man","","","M1 is driving M3","drive","rating_volition","{""Q0"":0}","[0]","M3 is M1's passenger","M1 is M3's passenger"
"null","Beth and Mike are shouting at each other","","html-keyboard-response","130","732953","0.0-48.0-0.0","76255","3A","conjoined","man","","null","W4 and M2 are shouting at each other","shout3","sentence","","","",""
"10106","","","survey-likert-extra-labels","131","743061","0.0-48.0-2.0","76255","3A","conjoined","man","","","W4 and M2 are shouting at each other","shout3","rating_volition","{""Q0"":3}","[0]","M2 wanted to shout at W4","W4 wanted to shout at M2"
"3777","","","survey-likert-extra-labels","132","746847","0.0-48.0-3.0-0.0","76255","3A","conjoined","man","","","W4 and M2 are shouting at each other","shout3","rating_causation","{""Q0"":0}","[0]","M2 shouted at W4 first","W4 shouted at M2 first"
"null","Mike and Dave are marrying each other","","html-keyboard-response","133","748854","0.0-49.0-0.0","76255","3A","conjoined","man","","null","M2 and M4 are marrying each other","marry2","sentence","","","",""
"5210","","","survey-likert-extra-labels","134","754071","0.0-49.0-2.0","76255","3A","conjoined","man","","","M2 and M4 are marrying each other","marry2","rating_volition","{""Q0"":6}","[0]","M2 wanted to marry M4","M4 wanted to marry M2"
"2825","","","survey-likert-extra-labels","135","756911","0.0-49.0-3.0-0.0","76255","3A","conjoined","man","","","M2 and M4 are marrying each other","marry2","rating_causation","{""Q0"":6}","[0]","M2 asked to marry M4","M4 asked to marry M2"
"null","Mike is reminding Beth","","html-keyboard-response","136","758926","0.0-50.0-0.0","76255","3A","conjoined","man","","null","M2 is reminding W4","remind","sentence","","","",""
"3948","","","survey-likert-extra-labels","137","762879","0.0-50.0-2.0","76255","3A","conjoined","man","","","M2 is reminding W4","remind","rating_volition","{""Q0"":0}","[0]","M2 is telling W4 again","W4 is telling M2 again"
"10177","","","survey-likert-extra-labels","138","773065","0.0-50.0-3.0-0.0","76255","3A","conjoined","man","","","M2 is reminding W4","remind","rating_causation","{""Q0"":0}","[0]","M2 is remembering","W4 is remembering"
"null","Ruth and Fred are flirting with each other","","html-keyboard-response","139","775081","0.0-51.0-0.0","76255","3A","conjoined","man","","null","W1 and M3 are flirting with each other","flirt4","sentence","","","",""
"6037","","","survey-likert-extra-labels","140","781124","0.0-51.0-2.0","76255","3A","conjoined","man","","","W1 and M3 are flirting with each other","flirt4","rating_volition","{""Q0"":5}","[0]","M3 wanted to flirt with W1","W1 wanted to flirt with M3"
"5571","","","survey-likert-extra-labels","141","786701","0.0-51.0-3.0-0.0","76255","3A","conjoined","man","","","W1 and M3 are flirting with each other","flirt4","rating_causation","{""Q0"":1}","[0]","M3 started flirting with W1 first","W1 started flirting with M3 first"
"null","Beth and Mike are talking to each other","","html-keyboard-response","142","788719","0.0-52.0-0.0","76255","3A","conjoined","man","","null","W4 and M2 are talking to each other","talk4","sentence","","","",""
"4181","","","survey-likert-extra-labels","143","792904","0.0-52.0-2.0","76255","3A","conjoined","man","","","W4 and M2 are talking to each other","talk4","rating_volition","{""Q0"":6}","[0]","M2 wanted to talk to W4","W4 wanted to talk to M2"
"3650","","","survey-likert-extra-labels","144","796564","0.0-52.0-3.0-0.0","76255","3A","conjoined","man","","","W4 and M2 are talking to each other","talk4","rating_causation","{""Q0"":6}","[0]","M2 started a conversation with W4","W4 started a conversation with M2"
"null","Luke and Kate are touching each other","","html-keyboard-response","145","798584","0.0-53.0-0.0","76255","3A","conjoined","man","","null","M1 and W3 are touching each other","touch3","sentence","","","",""
"8117","","","survey-likert-extra-labels","146","806707","0.0-53.0-1.0-0.0","76255","3A","conjoined","man","","","M1 and W3 are touching each other","touch3","rating_causation","{""Q0"":3}","[0]","W3 asked to touch M1","M1 asked to touch W3"
"3010","","","survey-likert-extra-labels","147","809730","0.0-53.0-2.0","76255","3A","conjoined","man","","","M1 and W3 are touching each other","touch3","rating_volition","{""Q0"":6}","[0]","W3 wanted to touch M1","M1 wanted to touch W3"
"null","Beth and Jane are playing with each other","","html-keyboard-response","148","811746","0.0-54.0-0.0","76255","3A","conjoined","man","","null","W4 and W2 are playing with each other","play1","sentence","","","",""
"8811","","","survey-likert-extra-labels","149","820562","0.0-54.0-1.0-0.0","76255","3A","conjoined","man","","","W4 and W2 are playing with each other","play1","rating_causation","{""Q0"":0}","[0]","W2 asked to play with W4","W4 asked to play with W2"
"3441","","","survey-likert-extra-labels","150","824016","0.0-54.0-2.0","76255","3A","conjoined","man","","","W4 and W2 are playing with each other","play1","rating_volition","{""Q0"":0}","[0]","W2 wanted to play with W4","W4 wanted to play with W2"
"2064","<p>Thank you for completing that task.</p><p>The final part of this session is a short questionnaire.</p><p>Press Continue.</p>","0","html-button-response","151","826087","0.0-55.0","76255","3A","conjoined","man","","","","","","","","",""
"13516","","","survey-text","152","840628","0.0-56.0","76255","3A","conjoined","man","","","","","demographics","{""Q0"":""32"",""Q1"":""English"",""Q2"":""English"",""Q3"":""United Kingdom"",""Q4"":""Australian"",""Q5"":""White"",""Q6"":""Male""}","","",""
"2136","<p>Have you lived in the UK for the last 5 years or more?</p>","1","html-button-response","153","842770","0.0-57.0","76255","3A","conjoined","man","","","","","fiveyears","","","",""
"8602","","","survey-text","154","852396","0.0-58.0","76255","3A","conjoined","man","","","","","worker_id","{""Q0"":""5da9e0145c6987001735a63a""}","","",""
"14284","","","external-html","155","866777","0.0-59.0","76255","3A","conjoined","man","debrief.html","","","","","","","",""
