"rt","stimulus","button_pressed","trial_type","trial_index","time_elapsed","internal_node_id","subject","list","condition","ppt_gender","url","key_press","sentence_type","verb","test_part","responses","question_order","left_part","right_part"
"7893.400000000838","Welcome to the experiment. Press Continue to begin.","0","html-button-response","0","7918","0.0-0.0","76568","2A","conjoined","man","","","","","","","","",""
"25236.09999999826","","","external-html","1","34281","0.0-1.0","76568","2A","conjoined","man","consent.html","","","","","","","",""
"2887.300000002142","<p>Welcome.</p><p>In this experiment we will ask you to imagine some situations.</p><p>Each trial starts with a description of an event.</p><p>Then you will see alternative descriptions of that event, and you will rate on a scale how best they match the original description.</p><p>You will give your answer by clicking a button on a rating scale.</p><p>To do this task, you will have to use your imagination to visualise these events.</p><br><p>Ready?</p>","0","html-button-response","2","37179","0.0-2.0","76568","2A","conjoined","man","","","","","","","","",""
"2149.600000000646","<p>Before the experiment starts, you will watch an example trial. Press 'Continue'.</p>","0","html-button-response","3","40340","0.0-3.0","76568","2A","conjoined","man","","","","","","","","",""
"null","The police officer is arresting the robber","","html-keyboard-response","4","43355","0.0-4.0","76568","2A","conjoined","man","","null","","","","","","",""
"44996.69999999969","<img src='img/Example-trial.jpg' style='height:550px;''></img>","0","html-button-response","5","88366","0.0-5.0","76568","2A","conjoined","man","","","","","","","","",""
"2607.1000000010827","<p>Ready to start the experiment?</p><br><p><strong>Remember to give an answer by clicking a button on the rating scale.</strong></p><p>Press 'Continue' to begin.</p>","0","html-button-response","6","91985","0.0-6.0","76568","2A","conjoined","man","","","","","","","","",""
"null","Dave and Jane are arguing with each other","","html-keyboard-response","7","94999","0.0-7.0-0.0","76568","2A","conjoined","man","","null","M4 and W2 are arguing with each other","argue3","sentence","","","",""
"7082.200000000739","","","survey-likert-extra-labels","8","102195","0.0-7.0-2.0","76568","2A","conjoined","man","","","M4 and W2 are arguing with each other","argue3","rating_volition","{""Q0"":3}","[0]","M4 wanted to argue with W2","W2 wanted to argue with M4"
"4381.600000000617","","","survey-likert-extra-labels","9","106592","0.0-7.0-3.0-0.0","76568","2A","conjoined","man","","","M4 and W2 are arguing with each other","argue3","rating_causation","{""Q0"":3}","[0]","M4 started an argument with W2","W2 started an argument with M4"
"null","Ruth and Kate are kissing each other","","html-keyboard-response","10","108609","0.0-8.0-0.0","76568","2A","conjoined","man","","null","W1 and W3 are kissing each other","kiss1","sentence","","","",""
"2513.599999998405","","","survey-likert-extra-labels","11","111135","0.0-8.0-1.0-0.0","76568","2A","conjoined","man","","","W1 and W3 are kissing each other","kiss1","rating_causation","{""Q0"":3}","[0]","W3 asked to kiss W1","W1 asked to kiss W3"
"4205.400000002555","","","survey-likert-extra-labels","12","115362","0.0-8.0-2.0","76568","2A","conjoined","man","","","W1 and W3 are kissing each other","kiss1","rating_volition","{""Q0"":3}","[0]","W3 wanted to kiss W1","W1 wanted to kiss W3"
"null","Ruth is chasing Kate","","html-keyboard-response","13","117370","0.0-9.0-0.0","76568","2A","conjoined","man","","null","W1 is chasing W3","chase","sentence","","","",""
"10077.60000000053","","","survey-likert-extra-labels","14","127456","0.0-9.0-2.0","76568","2A","conjoined","man","","","W1 is chasing W3","chase","rating_volition","{""Q0"":0}","[0]","W1 is behind W3","W3 is behind W1"
"23878.399999997782","","","survey-likert-extra-labels","15","151359","0.0-9.0-3.0-0.0","76568","2A","conjoined","man","","","W1 is chasing W3","chase","rating_causation","{""Q0"":6}","[0]","W1 is running away from W3","W3 is running away from W1"
"null","Mike and Dave are marrying each other","","html-keyboard-response","16","153377","0.0-10.0-0.0","76568","2A","conjoined","man","","null","M2 and M4 are marrying each other","marry2","sentence","","","",""
"3187.3000000014144","","","survey-likert-extra-labels","17","156575","0.0-10.0-1.0-0.0","76568","2A","conjoined","man","","","M2 and M4 are marrying each other","marry2","rating_causation","{""Q0"":3}","[0]","M4 asked to marry M2","M2 asked to marry M4"
"3558.100000002014","","","survey-likert-extra-labels","18","160155","0.0-10.0-2.0","76568","2A","conjoined","man","","","M2 and M4 are marrying each other","marry2","rating_volition","{""Q0"":3}","[0]","M4 wanted to marry M2","M2 wanted to marry M4"
"null","Ruth and Kate are talking to each other","","html-keyboard-response","19","162171","0.0-11.0-0.0","76568","2A","conjoined","man","","null","W1 and W3 are talking to each other","talk1","sentence","","","",""
"3457.0999999996275","","","survey-likert-extra-labels","20","165638","0.0-11.0-2.0","76568","2A","conjoined","man","","","W1 and W3 are talking to each other","talk1","rating_volition","{""Q0"":3}","[0]","W3 wanted to talk to W1","W1 wanted to talk to W3"
"3189.800000000105","","","survey-likert-extra-labels","21","168853","0.0-11.0-3.0-0.0","76568","2A","conjoined","man","","","W1 and W3 are talking to each other","talk1","rating_causation","{""Q0"":3}","[0]","W3 started a conversation with W1","W1 started a conversation with W3"
"null","Dave and Mike are playing with each other","","html-keyboard-response","22","170865","0.0-12.0-0.0","76568","2A","conjoined","man","","null","M4 and M2 are playing with each other","play2","sentence","","","",""
"3222.1000000026834","","","survey-likert-extra-labels","23","174099","0.0-12.0-1.0-0.0","76568","2A","conjoined","man","","","M4 and M2 are playing with each other","play2","rating_causation","{""Q0"":3}","[0]","M4 asked to play with M2","M2 asked to play with M4"
"4368.999999998778","","","survey-likert-extra-labels","24","178491","0.0-12.0-2.0","76568","2A","conjoined","man","","","M4 and M2 are playing with each other","play2","rating_volition","{""Q0"":3}","[0]","M4 wanted to play with M2","M2 wanted to play with M4"
"null","Ruth and Fred are playing with each other","","html-keyboard-response","25","180507","0.0-13.0-0.0","76568","2A","conjoined","man","","null","W1 and M3 are playing with each other","play3","sentence","","","",""
"2003.8000000022294","","","survey-likert-extra-labels","26","182522","0.0-13.0-2.0","76568","2A","conjoined","man","","","W1 and M3 are playing with each other","play3","rating_volition","{""Q0"":3}","[0]","W1 wanted to play with M3","M3 wanted to play with W1"
"2938.899999997375","","","survey-likert-extra-labels","27","185479","0.0-13.0-3.0-0.0","76568","2A","conjoined","man","","","W1 and M3 are playing with each other","play3","rating_causation","{""Q0"":3}","[0]","W1 asked to play with M3","M3 asked to play with W1"
"null","Fred and Luke are arguing with each other","","html-keyboard-response","28","187488","0.0-14.0-0.0","76568","2A","conjoined","man","","null","M3 and M1 are arguing with each other","argue2","sentence","","","",""
"1808.2000000031258","","","survey-likert-extra-labels","29","189306","0.0-14.0-1.0-0.0","76568","2A","conjoined","man","","","M3 and M1 are arguing with each other","argue2","rating_causation","{""Q0"":3}","[0]","M3 started an argument with M1","M1 started an argument with M3"
"3561.9000000006054","","","survey-likert-extra-labels","30","192887","0.0-14.0-2.0","76568","2A","conjoined","man","","","M3 and M1 are arguing with each other","argue2","rating_volition","{""Q0"":3}","[0]","M3 wanted to argue with M1","M1 wanted to argue with M3"
"null","Mike is posing for Dave","","html-keyboard-response","31","194897","0.0-15.0-0.0","76568","2A","conjoined","man","","null","M2 is posing for M4","pose","sentence","","","",""
"8146.099999998114","","","survey-likert-extra-labels","32","203052","0.0-15.0-2.0","76568","2A","conjoined","man","","","M2 is posing for M4","pose","rating_volition","{""Q0"":0}","[0]","M2 is modelling for M4","M4 is modelling for M2"
"11019.29999999993","","","survey-likert-extra-labels","33","214097","0.0-15.0-3.0-0.0","76568","2A","conjoined","man","","","M2 is posing for M4","pose","rating_causation","{""Q0"":6}","[0]","M2 is photographing M4","M4 is photographing M2"
"null","Jane and Dave are dancing with each other","","html-keyboard-response","34","216115","0.0-16.0-0.0","76568","2A","conjoined","man","","null","W2 and M4 are dancing with each other","dance3","sentence","","","",""
"2859.599999999773","","","survey-likert-extra-labels","35","218980","0.0-16.0-1.0-0.0","76568","2A","conjoined","man","","","W2 and M4 are dancing with each other","dance3","rating_causation","{""Q0"":3}","[0]","M4 asked W2 to dance","W2 asked M4 to dance"
"3256.600000000617","","","survey-likert-extra-labels","36","222246","0.0-16.0-2.0","76568","2A","conjoined","man","","","W2 and M4 are dancing with each other","dance3","rating_volition","{""Q0"":3}","[0]","M4 wanted to dance with W2","W2 wanted to dance with M4"
"null","Luke and Fred are talking to each other","","html-keyboard-response","37","224262","0.0-17.0-0.0","76568","2A","conjoined","man","","null","M1 and M3 are talking to each other","talk2","sentence","","","",""
"1468.299999996816","","","survey-likert-extra-labels","38","225736","0.0-17.0-1.0-0.0","76568","2A","conjoined","man","","","M1 and M3 are talking to each other","talk2","rating_causation","{""Q0"":3}","[0]","M3 started a conversation with M1","M1 started a conversation with M3"
"2331.3000000016473","","","survey-likert-extra-labels","39","228076","0.0-17.0-2.0","76568","2A","conjoined","man","","","M1 and M3 are talking to each other","talk2","rating_volition","{""Q0"":3}","[0]","M3 wanted to talk to M1","M1 wanted to talk to M3"
"null","Mike and Beth are dancing with each other","","html-keyboard-response","40","230084","0.0-18.0-0.0","76568","2A","conjoined","man","","null","M2 and W4 are dancing with each other","dance4","sentence","","","",""
"1471.9000000004598","","","survey-likert-extra-labels","41","231562","0.0-18.0-2.0","76568","2A","conjoined","man","","","M2 and W4 are dancing with each other","dance4","rating_volition","{""Q0"":3}","[0]","W4 wanted to dance with M2","M2 wanted to dance with W4"
"2353.1000000002678","","","survey-likert-extra-labels","42","233924","0.0-18.0-3.0-0.0","76568","2A","conjoined","man","","","M2 and W4 are dancing with each other","dance4","rating_causation","{""Q0"":3}","[0]","W4 asked M2 to dance","M2 asked W4 to dance"
"null","Kate and Luke are flirting with each other","","html-keyboard-response","43","235931","0.0-19.0-0.0","76568","2A","conjoined","man","","null","W3 and M1 are flirting with each other","flirt3","sentence","","","",""
"1539.8999999997613","","","survey-likert-extra-labels","44","237486","0.0-19.0-2.0","76568","2A","conjoined","man","","","W3 and M1 are flirting with each other","flirt3","rating_volition","{""Q0"":3}","[0]","M1 wanted to flirt with W3","W3 wanted to flirt with M1"
"2410.5000000017753","","","survey-likert-extra-labels","45","239907","0.0-19.0-3.0-0.0","76568","2A","conjoined","man","","","W3 and M1 are flirting with each other","flirt3","rating_causation","{""Q0"":3}","[0]","M1 started flirting with W3 first","W3 started flirting with M1 first"
"null","Mike and Dave are touching each other","","html-keyboard-response","46","241920","0.0-20.0-0.0","76568","2A","conjoined","man","","null","M2 and M4 are touching each other","touch2","sentence","","","",""
"5977.999999999156","","","survey-likert-extra-labels","47","247913","0.0-20.0-2.0","76568","2A","conjoined","man","","","M2 and M4 are touching each other","touch2","rating_volition","{""Q0"":3}","[0]","M4 wanted to touch M2","M2 wanted to touch M4"
"3379.3000000005122","","","survey-likert-extra-labels","48","251318","0.0-20.0-3.0-0.0","76568","2A","conjoined","man","","","M2 and M4 are touching each other","touch2","rating_causation","{""Q0"":3}","[0]","M4 asked to touch M2","M2 asked to touch M4"
"null","Dave and Mike are fighting each other","","html-keyboard-response","49","253336","0.0-21.0-0.0","76568","2A","conjoined","man","","null","M4 and M2 are fighting each other","fight2","sentence","","","",""
"1700.1000000018394","","","survey-likert-extra-labels","50","255050","0.0-21.0-2.0","76568","2A","conjoined","man","","","M4 and M2 are fighting each other","fight2","rating_volition","{""Q0"":3}","[0]","M4 wanted to fight M2","M2 wanted to fight M4"
"3139.100000000326","","","survey-likert-extra-labels","51","258200","0.0-21.0-3.0-0.0","76568","2A","conjoined","man","","","M4 and M2 are fighting each other","fight2","rating_causation","{""Q0"":3}","[0]","M4 started the fight with M2","M2 started the fight with M4"
"null","Ruth and Kate are dancing with each other","","html-keyboard-response","52","260219","0.0-22.0-0.0","76568","2A","conjoined","man","","null","W1 and W3 are dancing with each other","dance1","sentence","","","",""
"2031.7999999970198","","","survey-likert-extra-labels","53","262260","0.0-22.0-1.0-0.0","76568","2A","conjoined","man","","","W1 and W3 are dancing with each other","dance1","rating_causation","{""Q0"":3}","[0]","W3 asked W1 to dance","W1 asked W3 to dance"
"2717.400000001362","","","survey-likert-extra-labels","54","265000","0.0-22.0-2.0","76568","2A","conjoined","man","","","W1 and W3 are dancing with each other","dance1","rating_volition","{""Q0"":3}","[0]","W3 wanted to dance with W1","W1 wanted to dance with W3"
"null","Beth and Jane are playing with each other","","html-keyboard-response","55","267013","0.0-23.0-0.0","76568","2A","conjoined","man","","null","W4 and W2 are playing with each other","play1","sentence","","","",""
"1923.7000000030384","","","survey-likert-extra-labels","56","268946","0.0-23.0-2.0","76568","2A","conjoined","man","","","W4 and W2 are playing with each other","play1","rating_volition","{""Q0"":3}","[0]","W4 wanted to play with W2","W2 wanted to play with W4"
"2423.299999998533","","","survey-likert-extra-labels","57","271388","0.0-23.0-3.0-0.0","76568","2A","conjoined","man","","","W4 and W2 are playing with each other","play1","rating_causation","{""Q0"":3}","[0]","W4 asked to play with W2","W2 asked to play with W4"
"null","Luke and Kate are fighting each other","","html-keyboard-response","58","273403","0.0-24.0-0.0","76568","2A","conjoined","man","","null","M1 and W3 are fighting each other","fight3","sentence","","","",""
"1820.4999999979627","","","survey-likert-extra-labels","59","275234","0.0-24.0-1.0-0.0","76568","2A","conjoined","man","","","M1 and W3 are fighting each other","fight3","rating_causation","{""Q0"":3}","[0]","M1 started the fight with W3","W3 started the fight with M1"
"2366.5000000001164","","","survey-likert-extra-labels","60","277622","0.0-24.0-2.0","76568","2A","conjoined","man","","","M1 and W3 are fighting each other","fight3","rating_volition","{""Q0"":3}","[0]","M1 wanted to fight W3","W3 wanted to fight M1"
"null","Fred and Ruth are flirting with each other","","html-keyboard-response","61","279633","0.0-25.0-0.0","76568","2A","conjoined","man","","null","M3 and W1 are flirting with each other","flirt4","sentence","","","",""
"4103.899999998277","","","survey-likert-extra-labels","62","283746","0.0-25.0-2.0","76568","2A","conjoined","man","","","M3 and W1 are flirting with each other","flirt4","rating_volition","{""Q0"":3}","[0]","W1 wanted to flirt with M3","M3 wanted to flirt with W1"
"11864.900000000489","","","survey-likert-extra-labels","63","295636","0.0-25.0-3.0-0.0","76568","2A","conjoined","man","","","M3 and W1 are flirting with each other","flirt4","rating_causation","{""Q0"":3}","[0]","W1 started flirting with M3 first","M3 started flirting with W1 first"
"null","Mike is reminding Beth","","html-keyboard-response","64","297654","0.0-26.0-0.0","76568","2A","conjoined","man","","null","M2 is reminding W4","remind","sentence","","","",""
"9360.899999999674","","","survey-likert-extra-labels","65","307026","0.0-26.0-1.0-0.0","76568","2A","conjoined","man","","","M2 is reminding W4","remind","rating_causation","{""Q0"":6}","[0]","M2 is remembering","W4 is remembering"
"13374.400000000605","","","survey-likert-extra-labels","66","320428","0.0-26.0-2.0","76568","2A","conjoined","man","","","M2 is reminding W4","remind","rating_volition","{""Q0"":0}","[0]","M2 is telling W4 again","W4 is telling M2 again"
"null","Ruth and Fred are fighting each other","","html-keyboard-response","67","322446","0.0-27.0-0.0","76568","2A","conjoined","man","","null","W1 and M3 are fighting each other","fight4","sentence","","","",""
"2432.0000000006985","","","survey-likert-extra-labels","68","324884","0.0-27.0-2.0","76568","2A","conjoined","man","","","W1 and M3 are fighting each other","fight4","rating_volition","{""Q0"":3}","[0]","W1 wanted to fight M3","M3 wanted to fight W1"
"4443.600000002305","","","survey-likert-extra-labels","69","329343","0.0-27.0-3.0-0.0","76568","2A","conjoined","man","","","W1 and M3 are fighting each other","fight4","rating_causation","{""Q0"":3}","[0]","W1 started the fight with M3","M3 started the fight with W1"
"null","Mike and Beth are talking to each other","","html-keyboard-response","70","331362","0.0-28.0-0.0","76568","2A","conjoined","man","","null","M2 and W4 are talking to each other","talk4","sentence","","","",""
"18348.09999999928","","","survey-likert-extra-labels","71","349726","0.0-28.0-2.0","76568","2A","conjoined","man","","","M2 and W4 are talking to each other","talk4","rating_volition","{""Q0"":3}","[0]","W4 wanted to talk to M2","M2 wanted to talk to W4"
"2860.3000000002794","","","survey-likert-extra-labels","72","352613","0.0-28.0-3.0-0.0","76568","2A","conjoined","man","","","M2 and W4 are talking to each other","talk4","rating_causation","{""Q0"":3}","[0]","W4 started a conversation with M2","M2 started a conversation with W4"
"null","Jane and Beth are marrying each other","","html-keyboard-response","73","354628","0.0-29.0-0.0","76568","2A","conjoined","man","","null","W2 and W4 are marrying each other","marry1","sentence","","","",""
"1687.3999999988591","","","survey-likert-extra-labels","74","356328","0.0-29.0-2.0","76568","2A","conjoined","man","","","W2 and W4 are marrying each other","marry1","rating_volition","{""Q0"":3}","[0]","W4 wanted to marry W2","W2 wanted to marry W4"
"2401.899999997113","","","survey-likert-extra-labels","75","358738","0.0-29.0-3.0-0.0","76568","2A","conjoined","man","","","W2 and W4 are marrying each other","marry1","rating_causation","{""Q0"":3}","[0]","W4 asked to marry W2","W2 asked to marry W4"
"null","Beth and Mike are arguing with each other","","html-keyboard-response","76","360744","0.0-30.0-0.0","76568","2A","conjoined","man","","null","W4 and M2 are arguing with each other","argue4","sentence","","","",""
"2209.399999999674","","","survey-likert-extra-labels","77","362964","0.0-30.0-1.0-0.0","76568","2A","conjoined","man","","","W4 and M2 are arguing with each other","argue4","rating_causation","{""Q0"":3}","[0]","W4 started an argument with M2","M2 started an argument with W4"
"4631.3000000008615","","","survey-likert-extra-labels","78","367618","0.0-30.0-2.0","76568","2A","conjoined","man","","","W4 and M2 are arguing with each other","argue4","rating_volition","{""Q0"":3}","[0]","W4 wanted to argue with M2","M2 wanted to argue with W4"
"null","Kate and Ruth are shouting at each other","","html-keyboard-response","79","369636","0.0-31.0-0.0","76568","2A","conjoined","man","","null","W3 and W1 are shouting at each other","shout1","sentence","","","",""
"1892.0999999972992","","","survey-likert-extra-labels","80","371546","0.0-31.0-1.0-0.0","76568","2A","conjoined","man","","","W3 and W1 are shouting at each other","shout1","rating_causation","{""Q0"":3}","[0]","W3 shouted at W1 first","W1 shouted at W3 first"
"3283.800000001036","","","survey-likert-extra-labels","81","374847","0.0-31.0-2.0","76568","2A","conjoined","man","","","W3 and W1 are shouting at each other","shout1","rating_volition","{""Q0"":3}","[0]","W3 wanted to shout at W1","W1 wanted to shout at W3"
"null","Jane and Beth are touching each other","","html-keyboard-response","82","376866","0.0-32.0-0.0","76568","2A","conjoined","man","","null","W2 and W4 are touching each other","touch1","sentence","","","",""
"4970.900000000256","","","survey-likert-extra-labels","83","381847","0.0-32.0-1.0-0.0","76568","2A","conjoined","man","","","W2 and W4 are touching each other","touch1","rating_causation","{""Q0"":3}","[0]","W4 asked to touch W2","W2 asked to touch W4"
"3536.49999999837","","","survey-likert-extra-labels","84","385411","0.0-32.0-2.0","76568","2A","conjoined","man","","","W2 and W4 are touching each other","touch1","rating_volition","{""Q0"":3}","[0]","W4 wanted to touch W2","W2 wanted to touch W4"
"null","Fred and Ruth are marrying each other","","html-keyboard-response","85","387427","0.0-33.0-0.0","76568","2A","conjoined","man","","null","M3 and W1 are marrying each other","marry3","sentence","","","",""
"4740.200000000186","","","survey-likert-extra-labels","86","392180","0.0-33.0-1.0-0.0","76568","2A","conjoined","man","","","M3 and W1 are marrying each other","marry3","rating_causation","{""Q0"":4}","[0]","W1 asked to marry M3","M3 asked to marry W1"
"2526.899999997113","","","survey-likert-extra-labels","87","394720","0.0-33.0-2.0","76568","2A","conjoined","man","","","M3 and W1 are marrying each other","marry3","rating_volition","{""Q0"":4}","[0]","W1 wanted to marry M3","M3 wanted to marry W1"
"null","Kate and Luke are marrying each other","","html-keyboard-response","88","396735","0.0-34.0-0.0","76568","2A","conjoined","man","","null","W3 and M1 are marrying each other","marry4","sentence","","","",""
"2322.2999999998137","","","survey-likert-extra-labels","89","399073","0.0-34.0-1.0-0.0","76568","2A","conjoined","man","","","W3 and M1 are marrying each other","marry4","rating_causation","{""Q0"":3}","[0]","M1 asked to marry W3","W3 asked to marry M1"
"2195.899999998801","","","survey-likert-extra-labels","90","401286","0.0-34.0-2.0","76568","2A","conjoined","man","","","W3 and M1 are marrying each other","marry4","rating_volition","{""Q0"":3}","[0]","M1 wanted to marry W3","W3 wanted to marry M1"
"null","Kate and Ruth are arguing with each other","","html-keyboard-response","91","403292","0.0-35.0-0.0","76568","2A","conjoined","man","","null","W3 and W1 are arguing with each other","argue1","sentence","","","",""
"1815.2999999983585","","","survey-likert-extra-labels","92","405120","0.0-35.0-2.0","76568","2A","conjoined","man","","","W3 and W1 are arguing with each other","argue1","rating_volition","{""Q0"":3}","[0]","W3 wanted to argue with W1","W1 wanted to argue with W3"
"2594.4000000017695","","","survey-likert-extra-labels","93","407726","0.0-35.0-3.0-0.0","76568","2A","conjoined","man","","","W3 and W1 are arguing with each other","argue1","rating_causation","{""Q0"":3}","[0]","W3 started an argument with W1","W1 started an argument with W3"
"null","Jane and Beth are flirting with each other","","html-keyboard-response","94","409741","0.0-36.0-0.0","76568","2A","conjoined","man","","null","W2 and W4 are flirting with each other","flirt1","sentence","","","",""
"5263.999999999185","","","survey-likert-extra-labels","95","415022","0.0-36.0-2.0","76568","2A","conjoined","man","","","W2 and W4 are flirting with each other","flirt1","rating_volition","{""Q0"":2}","[0]","W4 wanted to flirt with W2","W2 wanted to flirt with W4"
"2696.200000002107","","","survey-likert-extra-labels","96","417746","0.0-36.0-3.0-0.0","76568","2A","conjoined","man","","","W2 and W4 are flirting with each other","flirt1","rating_causation","{""Q0"":4}","[0]","W4 started flirting with W2 first","W2 started flirting with W4 first"
"null","Jane and Dave are talking to each other","","html-keyboard-response","97","419760","0.0-37.0-0.0","76568","2A","conjoined","man","","null","W2 and M4 are talking to each other","talk3","sentence","","","",""
"2329.9000000006054","","","survey-likert-extra-labels","98","422104","0.0-37.0-2.0","76568","2A","conjoined","man","","","W2 and M4 are talking to each other","talk3","rating_volition","{""Q0"":3}","[0]","M4 wanted to talk to W2","W2 wanted to talk to M4"
"3946.700000000419","","","survey-likert-extra-labels","99","426063","0.0-37.0-3.0-0.0","76568","2A","conjoined","man","","","W2 and M4 are talking to each other","talk3","rating_causation","{""Q0"":3}","[0]","M4 started a conversation with W2","W2 started a conversation with M4"
"null","Beth and Mike are shouting at each other","","html-keyboard-response","100","428070","0.0-38.0-0.0","76568","2A","conjoined","man","","null","W4 and M2 are shouting at each other","shout3","sentence","","","",""
"2174.8999999981606","","","survey-likert-extra-labels","101","430255","0.0-38.0-2.0","76568","2A","conjoined","man","","","W4 and M2 are shouting at each other","shout3","rating_volition","{""Q0"":3}","[0]","W4 wanted to shout at M2","M2 wanted to shout at W4"
"3253.500000002503","","","survey-likert-extra-labels","102","433526","0.0-38.0-3.0-0.0","76568","2A","conjoined","man","","","W4 and M2 are shouting at each other","shout3","rating_causation","{""Q0"":4}","[0]","W4 shouted at M2 first","M2 shouted at W4 first"
"null","Luke is driving Fred","","html-keyboard-response","103","435533","0.0-39.0-0.0","76568","2A","conjoined","man","","null","M1 is driving M3","drive","sentence","","","",""
"6497.599999998813","","","survey-likert-extra-labels","104","442039","0.0-39.0-1.0-0.0","76568","2A","conjoined","man","","","M1 is driving M3","drive","rating_causation","{""Q0"":6}","[0]","M3 is taking M1 somewhere","M1 is taking M3 somewhere"
"12135.600000001374","","","survey-likert-extra-labels","105","454200","0.0-39.0-2.0","76568","2A","conjoined","man","","","M1 is driving M3","drive","rating_volition","{""Q0"":0}","[0]","M3 is M1's passenger","M1 is M3's passenger"
"null","Luke and Fred are kissing each other","","html-keyboard-response","106","456224","0.0-40.0-0.0","76568","2A","conjoined","man","","null","M1 and M3 are kissing each other","kiss2","sentence","","","",""
"1687.5","","","survey-likert-extra-labels","107","457923","0.0-40.0-2.0","76568","2A","conjoined","man","","","M1 and M3 are kissing each other","kiss2","rating_volition","{""Q0"":3}","[0]","M3 wanted to kiss M1","M1 wanted to kiss M3"
"3804.5000000020373","","","survey-likert-extra-labels","108","461736","0.0-40.0-3.0-0.0","76568","2A","conjoined","man","","","M1 and M3 are kissing each other","kiss2","rating_causation","{""Q0"":3}","[0]","M3 asked to kiss M1","M1 asked to kiss M3"
"null","Mike and Dave are flirting with each other","","html-keyboard-response","109","463743","0.0-41.0-0.0","76568","2A","conjoined","man","","null","M2 and M4 are flirting with each other","flirt2","sentence","","","",""
"1468.0999999982305","","","survey-likert-extra-labels","110","465222","0.0-41.0-2.0","76568","2A","conjoined","man","","","M2 and M4 are flirting with each other","flirt2","rating_volition","{""Q0"":3}","[0]","M4 wanted to flirt with M2","M2 wanted to flirt with M4"
"7037.800000001909","","","survey-likert-extra-labels","111","472281","0.0-41.0-3.0-0.0","76568","2A","conjoined","man","","","M2 and M4 are flirting with each other","flirt2","rating_causation","{""Q0"":2}","[0]","M4 started flirting with M2 first","M2 started flirting with M4 first"
"null","Beth and Jane are fighting each other","","html-keyboard-response","112","474299","0.0-42.0-0.0","76568","2A","conjoined","man","","null","W4 and W2 are fighting each other","fight1","sentence","","","",""
"2371.3000000024913","","","survey-likert-extra-labels","113","476684","0.0-42.0-2.0","76568","2A","conjoined","man","","","W4 and W2 are fighting each other","fight1","rating_volition","{""Q0"":4}","[0]","W4 wanted to fight W2","W2 wanted to fight W4"
"2443.8000000009197","","","survey-likert-extra-labels","114","479150","0.0-42.0-3.0-0.0","76568","2A","conjoined","man","","","W4 and W2 are fighting each other","fight1","rating_causation","{""Q0"":3}","[0]","W4 started the fight with W2","W2 started the fight with W4"
"null","Fred is hiring Ruth","","html-keyboard-response","115","481163","0.0-43.0-0.0","76568","2A","conjoined","man","","null","M3 is hiring W1","hire","sentence","","","",""
"11398.199999999604","","","survey-likert-extra-labels","116","492575","0.0-43.0-1.0-0.0","76568","2A","conjoined","man","","","M3 is hiring W1","hire","rating_causation","{""Q0"":6}","[0]","M3 will work for W1","W1 will work for M3"
"6920.599999997648","","","survey-likert-extra-labels","117","499513","0.0-43.0-2.0","76568","2A","conjoined","man","","","M3 is hiring W1","hire","rating_volition","{""Q0"":0}","[0]","M3 is employing W1","W1 is employing M3"
"null","Jane is carrying Beth","","html-keyboard-response","118","501530","0.0-44.0-0.0","76568","2A","conjoined","man","","null","W2 is carrying W4","carry","sentence","","","",""
"6212.599999998929","","","survey-likert-extra-labels","119","507753","0.0-44.0-2.0","76568","2A","conjoined","man","","","W2 is carrying W4","carry","rating_volition","{""Q0"":0}","[0]","W2 is transporting W4","W4 is transporting W2"
"7186.900000000605","","","survey-likert-extra-labels","120","514966","0.0-44.0-3.0-0.0","76568","2A","conjoined","man","","","W2 is carrying W4","carry","rating_causation","{""Q0"":6}","[0]","W2 is being moved by W4","W4 is being moved by W2"
"null","Kate is feeding Luke","","html-keyboard-response","121","516984","0.0-45.0-0.0","76568","2A","conjoined","man","","null","W3 is feeding M1","feed","sentence","","","",""
"12862.300000000745","","","survey-likert-extra-labels","122","529855","0.0-45.0-1.0-0.0","76568","2A","conjoined","man","","","W3 is feeding M1","feed","rating_causation","{""Q0"":6}","[0]","W3 is eating M1's food","M1 is eating W3's food"
"11640.800000001094","","","survey-likert-extra-labels","123","541523","0.0-45.0-2.0","76568","2A","conjoined","man","","","W3 is feeding M1","feed","rating_volition","{""Q0"":0}","[0]","W3 is giving M1 food","M1 is giving W3 food"
"null","Fred and Luke are shouting at each other","","html-keyboard-response","124","543540","0.0-46.0-0.0","76568","2A","conjoined","man","","null","M3 and M1 are shouting at each other","shout2","sentence","","","",""
"1842.1000000016065","","","survey-likert-extra-labels","125","545388","0.0-46.0-2.0","76568","2A","conjoined","man","","","M3 and M1 are shouting at each other","shout2","rating_volition","{""Q0"":3}","[0]","M3 wanted to shout at M1","M1 wanted to shout at M3"
"2890.9999999996508","","","survey-likert-extra-labels","126","548291","0.0-46.0-3.0-0.0","76568","2A","conjoined","man","","","M3 and M1 are shouting at each other","shout2","rating_causation","{""Q0"":3}","[0]","M3 shouted at M1 first","M1 shouted at M3 first"
"null","Jane and Dave are kissing each other","","html-keyboard-response","127","550308","0.0-47.0-0.0","76568","2A","conjoined","man","","null","W2 and M4 are kissing each other","kiss4","sentence","","","",""
"1492.0000000020955","","","survey-likert-extra-labels","128","551808","0.0-47.0-2.0","76568","2A","conjoined","man","","","W2 and M4 are kissing each other","kiss4","rating_volition","{""Q0"":3}","[0]","M4 wanted to kiss W2","W2 wanted to kiss M4"
"1875.2000000021653","","","survey-likert-extra-labels","129","553692","0.0-47.0-3.0-0.0","76568","2A","conjoined","man","","","W2 and M4 are kissing each other","kiss4","rating_causation","{""Q0"":3}","[0]","M4 asked to kiss W2","W2 asked to kiss M4"
"null","Fred and Ruth are touching each other","","html-keyboard-response","130","555699","0.0-48.0-0.0","76568","2A","conjoined","man","","null","M3 and W1 are touching each other","touch4","sentence","","","",""
"1519.1999999989057","","","survey-likert-extra-labels","131","557224","0.0-48.0-1.0-0.0","76568","2A","conjoined","man","","","M3 and W1 are touching each other","touch4","rating_causation","{""Q0"":3}","[0]","W1 asked to touch M3","M3 asked to touch W1"
"2594.399999998044","","","survey-likert-extra-labels","132","559830","0.0-48.0-2.0","76568","2A","conjoined","man","","","M3 and W1 are touching each other","touch4","rating_volition","{""Q0"":3}","[0]","W1 wanted to touch M3","M3 wanted to touch W1"
"null","Dave and Jane are shouting at each other","","html-keyboard-response","133","561847","0.0-49.0-0.0","76568","2A","conjoined","man","","null","M4 and W2 are shouting at each other","shout4","sentence","","","",""
"1455.0999999991618","","","survey-likert-extra-labels","134","563309","0.0-49.0-2.0","76568","2A","conjoined","man","","","M4 and W2 are shouting at each other","shout4","rating_volition","{""Q0"":3}","[0]","M4 wanted to shout at W2","W2 wanted to shout at M4"
"1477.3000000023749","","","survey-likert-extra-labels","135","564797","0.0-49.0-3.0-0.0","76568","2A","conjoined","man","","","M4 and W2 are shouting at each other","shout4","rating_causation","{""Q0"":3}","[0]","M4 shouted at W2 first","W2 shouted at M4 first"
"null","Kate and Luke are touching each other","","html-keyboard-response","136","566810","0.0-50.0-0.0","76568","2A","conjoined","man","","null","W3 and M1 are touching each other","touch3","sentence","","","",""
"1556.800000002142","","","survey-likert-extra-labels","137","568380","0.0-50.0-1.0-0.0","76568","2A","conjoined","man","","","W3 and M1 are touching each other","touch3","rating_causation","{""Q0"":3}","[0]","M1 asked to touch W3","W3 asked to touch M1"
"1490.2000000001863","","","survey-likert-extra-labels","138","569882","0.0-50.0-2.0","76568","2A","conjoined","man","","","W3 and M1 are touching each other","touch3","rating_volition","{""Q0"":3}","[0]","M1 wanted to touch W3","W3 wanted to touch M1"
"null","Luke and Kate are playing with each other","","html-keyboard-response","139","571895","0.0-51.0-0.0","76568","2A","conjoined","man","","null","M1 and W3 are playing with each other","play4","sentence","","","",""
"1633.3999999987427","","","survey-likert-extra-labels","140","573546","0.0-51.0-2.0","76568","2A","conjoined","man","","","M1 and W3 are playing with each other","play4","rating_volition","{""Q0"":3}","[0]","M1 wanted to play with W3","W3 wanted to play with M1"
"1694.7999999974854","","","survey-likert-extra-labels","141","575262","0.0-51.0-3.0-0.0","76568","2A","conjoined","man","","","M1 and W3 are playing with each other","play4","rating_causation","{""Q0"":3}","[0]","M1 asked to play with W3","W3 asked to play with M1"
"null","Luke and Fred are dancing with each other","","html-keyboard-response","142","577275","0.0-52.0-0.0","76568","2A","conjoined","man","","null","M1 and M3 are dancing with each other","dance2","sentence","","","",""
"1520.9999999969732","","","survey-likert-extra-labels","143","578809","0.0-52.0-1.0-0.0","76568","2A","conjoined","man","","","M1 and M3 are dancing with each other","dance2","rating_causation","{""Q0"":3}","[0]","M3 asked M1 to dance","M1 asked M3 to dance"
"1494.2000000008848","","","survey-likert-extra-labels","144","580310","0.0-52.0-2.0","76568","2A","conjoined","man","","","M1 and M3 are dancing with each other","dance2","rating_volition","{""Q0"":3}","[0]","M3 wanted to dance with M1","M1 wanted to dance with M3"
"null","Jane is teaching Dave","","html-keyboard-response","145","582317","0.0-53.0-0.0","76568","2A","conjoined","man","","null","W2 is teaching M4","teach","sentence","","","",""
"6452.600000000442","","","survey-likert-extra-labels","146","588786","0.0-53.0-1.0-0.0","76568","2A","conjoined","man","","","W2 is teaching M4","teach","rating_causation","{""Q0"":6}","[0]","W2 is learning from M4","M4 is learning from W2"
"6784.599999998929","","","survey-likert-extra-labels","147","595597","0.0-53.0-2.0","76568","2A","conjoined","man","","","W2 is teaching M4","teach","rating_volition","{""Q0"":0}","[0]","W2 is educating M4","M4 is educating W2"
"null","Mike and Beth are kissing each other","","html-keyboard-response","148","597615","0.0-54.0-0.0","76568","2A","conjoined","man","","null","M2 and W4 are kissing each other","kiss3","sentence","","","",""
"3443.8000000008615","","","survey-likert-extra-labels","149","601074","0.0-54.0-2.0","76568","2A","conjoined","man","","","M2 and W4 are kissing each other","kiss3","rating_volition","{""Q0"":3}","[0]","W4 wanted to kiss M2","M2 wanted to kiss W4"
"2534.5999999990454","","","survey-likert-extra-labels","150","603634","0.0-54.0-3.0-0.0","76568","2A","conjoined","man","","","M2 and W4 are kissing each other","kiss3","rating_causation","{""Q0"":3}","[0]","W4 asked to kiss M2","M2 asked to kiss W4"
"2225.399999999441","<p>Thank you for completing that task.</p><p>The final part of this session is a short questionnaire.</p><p>Press Continue.</p>","0","html-button-response","151","605875","0.0-55.0","76568","2A","conjoined","man","","","","","","","","",""
"38147.70000000135","","","survey-text","152","645048","0.0-56.0","76568","2A","conjoined","man","","","","","demographics","{""Q0"":""53"",""Q1"":""English"",""Q2"":""English"",""Q3"":""UK"",""Q4"":""English"",""Q5"":""White"",""Q6"":""Male""}","","",""
"3429.500000001979","<p>Have you lived in the UK for the last 5 years or more?</p>","0","html-button-response","153","648493","0.0-57.0","76568","2A","conjoined","man","","","","","fiveyears","","","",""
"12265.400000000256","","","survey-text","154","661775","0.0-58.0","76568","2A","conjoined","man","","","","","worker_id","{""Q0"":""5f2ec2a6a3cc1a2656cb9cdd""}","","",""
"7795.900000000955","","","external-html","155","669687","0.0-59.0","76568","2A","conjoined","man","debrief.html","","","","","","","",""
