rt,stimulus,button_pressed,trial_type,trial_index,time_elapsed,internal_node_id,subject,list,condition,ppt_gender,url,key_press,sentence_type,verb,test_part,responses,question_order,left_part,right_part
9403.82,Welcome to the experiment. Press Continue to begin.,0,html-button-response,0,9415,0.0-0.0,77180,4B,conjoined,woman,,,,,,,,,
32465.57,,,external-html,1,43057,0.0-1.0,77180,4B,conjoined,woman,consent.html,,,,,,,,
10733.88,"<p>Welcome.</p><p>In this experiment we will ask you to imagine some situations.</p><p>Each trial starts with a description of an event.</p><p>Then you will see alternative descriptions of that event, and you will rate on a scale how best they match the original description.</p><p>You will give your answer by clicking a button on a rating scale.</p><p>To do this task, you will have to use your imagination to visualise these events.</p><br><p>Ready?</p>",0,html-button-response,2,53794,0.0-2.0,77180,4B,conjoined,woman,,,,,,,,,
3402.46,"<p>Before the experiment starts, you will watch an example trial. Press 'Continue'.</p>",0,html-button-response,3,58205,0.0-3.0,77180,4B,conjoined,woman,,,,,,,,,
null,The police officer is arresting the robber,,html-keyboard-response,4,61216,0.0-4.0,77180,4B,conjoined,woman,,null,,,,,,,
13131.915,<img src='img/Example-trial.jpg' style='height:550px;''></img>,0,html-button-response,5,74353,0.0-5.0,77180,4B,conjoined,woman,,,,,,,,,
5426.565,<p>Ready to start the experiment?</p><br><p><strong>Remember to give an answer by clicking a button on the rating scale.</strong></p><p>Press 'Continue' to begin.</p>,0,html-button-response,6,80786,0.0-6.0,77180,4B,conjoined,woman,,,,,,,,,
null,Kate is chasing Beth,,html-keyboard-response,7,83808,0.0-7.0-0.0,77180,4B,conjoined,woman,,null,W1 is chasing W3,chase,sentence,,,,
7036.255,,,survey-likert-extra-labels,8,90849,0.0-7.0-2.0,77180,4B,conjoined,woman,,,W1 is chasing W3,chase,rating_volition,"{""Q0"":0}",[0],W1 is behind W3,W3 is behind W1
13176.935,,,survey-likert-extra-labels,9,104043,0.0-7.0-3.0-0.0,77180,4B,conjoined,woman,,,W1 is chasing W3,chase,rating_causation,"{""Q0"":6}",[0],W1 is running away from W3,W3 is running away from W1
null,Dave is playing with Kate,,html-keyboard-response,10,106071,0.0-8.0-0.0,77180,4B,conjoined,woman,,null,M3 is playing with W1,play3,sentence,,,,
10133.455,,,survey-likert-extra-labels,11,116207,0.0-8.0-2.0,77180,4B,conjoined,woman,,,M3 is playing with W1,play3,rating_volition,"{""Q0"":3}",[0],W1 wanted to play with M3,M3 wanted to play with W1
7461.34,,,survey-likert-extra-labels,12,123690,0.0-8.0-3.0-0.0,77180,4B,conjoined,woman,,,M3 is playing with W1,play3,rating_causation,"{""Q0"":3}",[0],W1 asked to play with M3,M3 asked to play with W1
null,Beth is talking to Kate,,html-keyboard-response,13,125706,0.0-9.0-0.0,77180,4B,conjoined,woman,,null,W3 is talking to W1,talk1,sentence,,,,
14260.28,,,survey-likert-extra-labels,14,139969,0.0-9.0-1.0-0.0,77180,4B,conjoined,woman,,,W3 is talking to W1,talk1,rating_causation,"{""Q0"":2}",[0],W3 started a conversation with W1,W1 started a conversation with W3
8308.95,,,survey-likert-extra-labels,15,148297,0.0-9.0-2.0,77180,4B,conjoined,woman,,,W3 is talking to W1,talk1,rating_volition,"{""Q0"":2}",[0],W3 wanted to talk to W1,W1 wanted to talk to W3
null,Mike is talking to Ruth,,html-keyboard-response,16,150323,0.0-10.0-0.0,77180,4B,conjoined,woman,,null,M4 is talking to W2,talk3,sentence,,,,
6028.455,,,survey-likert-extra-labels,17,156361,0.0-10.0-2.0,77180,4B,conjoined,woman,,,M4 is talking to W2,talk3,rating_volition,"{""Q0"":2}",[0],M4 wanted to talk to W2,W2 wanted to talk to M4
6963.45,,,survey-likert-extra-labels,18,163343,0.0-10.0-3.0-0.0,77180,4B,conjoined,woman,,,M4 is talking to W2,talk3,rating_causation,"{""Q0"":2}",[0],M4 started a conversation with W2,W2 started a conversation with M4
null,Kate is flirting with Dave,,html-keyboard-response,19,165361,0.0-11.0-0.0,77180,4B,conjoined,woman,,null,W1 is flirting with M3,flirt4,sentence,,,,
7128.655,,,survey-likert-extra-labels,20,172493,0.0-11.0-2.0,77180,4B,conjoined,woman,,,W1 is flirting with M3,flirt4,rating_volition,"{""Q0"":0}",[0],W1 wanted to flirt with M3,M3 wanted to flirt with W1
9711,,,survey-likert-extra-labels,21,182223,0.0-11.0-3.0-0.0,77180,4B,conjoined,woman,,,W1 is flirting with M3,flirt4,rating_causation,"{""Q0"":2}",[0],W1 started flirting with M3 first,M3 started flirting with W1 first
null,Jane is touching Ruth,,html-keyboard-response,22,184253,0.0-12.0-0.0,77180,4B,conjoined,woman,,null,W4 is touching W2,touch1,sentence,,,,
13330.92,,,survey-likert-extra-labels,23,197588,0.0-12.0-1.0-0.0,77180,4B,conjoined,woman,,,W4 is touching W2,touch1,rating_causation,"{""Q0"":2}",[0],W4 asked to touch W2,W2 asked to touch W4
8172.91,,,survey-likert-extra-labels,24,205784,0.0-12.0-2.0,77180,4B,conjoined,woman,,,W4 is touching W2,touch1,rating_volition,"{""Q0"":0}",[0],W4 wanted to touch W2,W2 wanted to touch W4
null,Mike is kissing Ruth,,html-keyboard-response,25,207811,0.0-13.0-0.0,77180,4B,conjoined,woman,,null,M4 is kissing W2,kiss4,sentence,,,,
5871.135,,,survey-likert-extra-labels,26,213685,0.0-13.0-1.0-0.0,77180,4B,conjoined,woman,,,M4 is kissing W2,kiss4,rating_causation,"{""Q0"":2}",[0],M4 asked to kiss W2,W2 asked to kiss M4
8008.17,,,survey-likert-extra-labels,27,221718,0.0-13.0-2.0,77180,4B,conjoined,woman,,,M4 is kissing W2,kiss4,rating_volition,"{""Q0"":0}",[0],M4 wanted to kiss W2,W2 wanted to kiss M4
null,Dave is dancing with Fred,,html-keyboard-response,28,223745,0.0-14.0-0.0,77180,4B,conjoined,woman,,null,M3 is dancing with M1,dance2,sentence,,,,
12077.56,,,survey-likert-extra-labels,29,235827,0.0-14.0-2.0,77180,4B,conjoined,woman,,,M3 is dancing with M1,dance2,rating_volition,"{""Q0"":3}",[0],M3 wanted to dance with M1,M1 wanted to dance with M3
8604.205,,,survey-likert-extra-labels,30,244455,0.0-14.0-3.0-0.0,77180,4B,conjoined,woman,,,M3 is dancing with M1,dance2,rating_causation,"{""Q0"":3}",[0],M3 asked M1 to dance,M1 asked M3 to dance
null,Fred is flirting with Beth,,html-keyboard-response,31,246481,0.0-15.0-0.0,77180,4B,conjoined,woman,,null,M1 is flirting with W3,flirt3,sentence,,,,
4487.015,,,survey-likert-extra-labels,32,250971,0.0-15.0-1.0-0.0,77180,4B,conjoined,woman,,,M1 is flirting with W3,flirt3,rating_causation,"{""Q0"":0}",[0],M1 started flirting with W3 first,W3 started flirting with M1 first
3558.485,,,survey-likert-extra-labels,33,254556,0.0-15.0-2.0,77180,4B,conjoined,woman,,,M1 is flirting with W3,flirt3,rating_volition,"{""Q0"":0}",[0],M1 wanted to flirt with W3,W3 wanted to flirt with M1
null,Fred is driving Dave,,html-keyboard-response,34,256580,0.0-16.0-0.0,77180,4B,conjoined,woman,,null,M1 is driving M3,drive,sentence,,,,
8082.92,,,survey-likert-extra-labels,35,264667,0.0-16.0-1.0-0.0,77180,4B,conjoined,woman,,,M1 is driving M3,drive,rating_causation,"{""Q0"":6}",[0],M3 is taking M1 somewhere,M1 is taking M3 somewhere
7511.075,,,survey-likert-extra-labels,36,272198,0.0-16.0-2.0,77180,4B,conjoined,woman,,,M1 is driving M3,drive,rating_volition,"{""Q0"":0}",[0],M3 is M1's passenger,M1 is M3's passenger
null,Kate is touching Dave,,html-keyboard-response,37,274230,0.0-17.0-0.0,77180,4B,conjoined,woman,,null,W1 is touching M3,touch4,sentence,,,,
7795.435,,,survey-likert-extra-labels,38,282028,0.0-17.0-2.0,77180,4B,conjoined,woman,,,W1 is touching M3,touch4,rating_volition,"{""Q0"":3}",[0],W1 wanted to touch M3,M3 wanted to touch W1
10530.33,,,survey-likert-extra-labels,39,292578,0.0-17.0-3.0-0.0,77180,4B,conjoined,woman,,,W1 is touching M3,touch4,rating_causation,"{""Q0"":0}",[0],W1 asked to touch M3,M3 asked to touch W1
null,Jane is flirting with Ruth,,html-keyboard-response,40,294604,0.0-18.0-0.0,77180,4B,conjoined,woman,,null,W4 is flirting with W2,flirt1,sentence,,,,
6950.135,,,survey-likert-extra-labels,41,301557,0.0-18.0-1.0-0.0,77180,4B,conjoined,woman,,,W4 is flirting with W2,flirt1,rating_causation,"{""Q0"":0}",[0],W4 started flirting with W2 first,W2 started flirting with W4 first
3963.975,,,survey-likert-extra-labels,42,305540,0.0-18.0-2.0,77180,4B,conjoined,woman,,,W4 is flirting with W2,flirt1,rating_volition,"{""Q0"":0}",[0],W4 wanted to flirt with W2,W2 wanted to flirt with W4
null,Kate is shouting at Beth,,html-keyboard-response,43,307562,0.0-19.0-0.0,77180,4B,conjoined,woman,,null,W1 is shouting at W3,shout1,sentence,,,,
9105.71,,,survey-likert-extra-labels,44,316672,0.0-19.0-2.0,77180,4B,conjoined,woman,,,W1 is shouting at W3,shout1,rating_volition,"{""Q0"":4}",[0],W3 wanted to shout at W1,W1 wanted to shout at W3
6837.93,,,survey-likert-extra-labels,45,323536,0.0-19.0-3.0-0.0,77180,4B,conjoined,woman,,,W1 is shouting at W3,shout1,rating_causation,"{""Q0"":3}",[0],W3 shouted at W1 first,W1 shouted at W3 first
null,Beth is feeding Fred,,html-keyboard-response,46,325560,0.0-20.0-0.0,77180,4B,conjoined,woman,,null,W3 is feeding M1,feed,sentence,,,,
8269.99,,,survey-likert-extra-labels,47,333833,0.0-20.0-2.0,77180,4B,conjoined,woman,,,W3 is feeding M1,feed,rating_volition,"{""Q0"":0}",[0],W3 is giving M1 food,M1 is giving W3 food
7759.71,,,survey-likert-extra-labels,48,341618,0.0-20.0-3.0-0.0,77180,4B,conjoined,woman,,,W3 is feeding M1,feed,rating_causation,"{""Q0"":3}",[0],W3 is eating M1's food,M1 is eating W3's food
null,Beth is kissing Kate,,html-keyboard-response,49,343640,0.0-21.0-0.0,77180,4B,conjoined,woman,,null,W3 is kissing W1,kiss1,sentence,,,,
4751.28,,,survey-likert-extra-labels,50,348397,0.0-21.0-1.0-0.0,77180,4B,conjoined,woman,,,W3 is kissing W1,kiss1,rating_causation,"{""Q0"":3}",[0],W3 asked to kiss W1,W1 asked to kiss W3
6174.925,,,survey-likert-extra-labels,51,354594,0.0-21.0-2.0,77180,4B,conjoined,woman,,,W3 is kissing W1,kiss1,rating_volition,"{""Q0"":0}",[0],W3 wanted to kiss W1,W1 wanted to kiss W3
null,Kate is arguing with Beth,,html-keyboard-response,52,356620,0.0-22.0-0.0,77180,4B,conjoined,woman,,null,W1 is arguing with W3,argue1,sentence,,,,
4385.535,,,survey-likert-extra-labels,53,361010,0.0-22.0-2.0,77180,4B,conjoined,woman,,,W1 is arguing with W3,argue1,rating_volition,"{""Q0"":3}",[0],W3 wanted to argue with W1,W1 wanted to argue with W3
6243.645,,,survey-likert-extra-labels,54,367275,0.0-22.0-3.0-0.0,77180,4B,conjoined,woman,,,W1 is arguing with W3,argue1,rating_causation,"{""Q0"":3}",[0],W3 started an argument with W1,W1 started an argument with W3
null,Ruth is shouting at Mike,,html-keyboard-response,55,369301,0.0-23.0-0.0,77180,4B,conjoined,woman,,null,W2 is shouting at M4,shout4,sentence,,,,
10215.22,,,survey-likert-extra-labels,56,379520,0.0-23.0-2.0,77180,4B,conjoined,woman,,,W2 is shouting at M4,shout4,rating_volition,"{""Q0"":5}",[0],M4 wanted to shout at W2,W2 wanted to shout at M4
3282.895,,,survey-likert-extra-labels,57,382819,0.0-23.0-3.0-0.0,77180,4B,conjoined,woman,,,W2 is shouting at M4,shout4,rating_causation,"{""Q0"":3}",[0],M4 shouted at W2 first,W2 shouted at M4 first
null,Dave is hiring Kate,,html-keyboard-response,58,384838,0.0-24.0-0.0,77180,4B,conjoined,woman,,null,M3 is hiring W1,hire,sentence,,,,
4178.68,,,survey-likert-extra-labels,59,389020,0.0-24.0-2.0,77180,4B,conjoined,woman,,,M3 is hiring W1,hire,rating_volition,"{""Q0"":0}",[0],M3 is employing W1,W1 is employing M3
7805.43,,,survey-likert-extra-labels,60,396849,0.0-24.0-3.0-0.0,77180,4B,conjoined,woman,,,M3 is hiring W1,hire,rating_causation,"{""Q0"":6}",[0],M3 will work for W1,W1 will work for M3
null,Fred is touching Beth,,html-keyboard-response,61,398873,0.0-25.0-0.0,77180,4B,conjoined,woman,,null,M1 is touching W3,touch3,sentence,,,,
3768.39,,,survey-likert-extra-labels,62,402646,0.0-25.0-2.0,77180,4B,conjoined,woman,,,M1 is touching W3,touch3,rating_volition,"{""Q0"":3}",[0],M1 wanted to touch W3,W3 wanted to touch M1
4417.385,,,survey-likert-extra-labels,63,407078,0.0-25.0-3.0-0.0,77180,4B,conjoined,woman,,,M1 is touching W3,touch3,rating_causation,"{""Q0"":3}",[0],M1 asked to touch W3,W3 asked to touch M1
null,Fred is marrying Beth,,html-keyboard-response,64,409106,0.0-26.0-0.0,77180,4B,conjoined,woman,,null,M1 is marrying W3,marry4,sentence,,,,
3918.58,,,survey-likert-extra-labels,65,413028,0.0-26.0-1.0-0.0,77180,4B,conjoined,woman,,,M1 is marrying W3,marry4,rating_causation,"{""Q0"":3}",[0],M1 asked to marry W3,W3 asked to marry M1
6812.3,,,survey-likert-extra-labels,66,419857,0.0-26.0-2.0,77180,4B,conjoined,woman,,,M1 is marrying W3,marry4,rating_volition,"{""Q0"":3}",[0],M1 wanted to marry W3,W3 wanted to marry M1
null,Luke is arguing with Jane,,html-keyboard-response,67,421884,0.0-27.0-0.0,77180,4B,conjoined,woman,,null,M2 is arguing with W4,argue4,sentence,,,,
4669.75,,,survey-likert-extra-labels,68,426559,0.0-27.0-1.0-0.0,77180,4B,conjoined,woman,,,M2 is arguing with W4,argue4,rating_causation,"{""Q0"":3}",[0],W4 started an argument with M2,M2 started an argument with W4
7844.59,,,survey-likert-extra-labels,69,434421,0.0-27.0-2.0,77180,4B,conjoined,woman,,,M2 is arguing with W4,argue4,rating_volition,"{""Q0"":5}",[0],W4 wanted to argue with M2,M2 wanted to argue with W4
null,Luke is playing with Mike,,html-keyboard-response,70,436447,0.0-28.0-0.0,77180,4B,conjoined,woman,,null,M2 is playing with M4,play2,sentence,,,,
8903.675,,,survey-likert-extra-labels,71,445355,0.0-28.0-2.0,77180,4B,conjoined,woman,,,M2 is playing with M4,play2,rating_volition,"{""Q0"":3}",[0],M4 wanted to play with M2,M2 wanted to play with M4
6041.98,,,survey-likert-extra-labels,72,451417,0.0-28.0-3.0-0.0,77180,4B,conjoined,woman,,,M2 is playing with M4,play2,rating_causation,"{""Q0"":3}",[0],M4 asked to play with M2,M2 asked to play with M4
null,Beth is playing with Fred,,html-keyboard-response,73,453441,0.0-29.0-0.0,77180,4B,conjoined,woman,,null,W3 is playing with M1,play4,sentence,,,,
6421.58,,,survey-likert-extra-labels,74,459866,0.0-29.0-2.0,77180,4B,conjoined,woman,,,W3 is playing with M1,play4,rating_volition,"{""Q0"":5}",[0],M1 wanted to play with W3,W3 wanted to play with M1
3513.525,,,survey-likert-extra-labels,75,463400,0.0-29.0-3.0-0.0,77180,4B,conjoined,woman,,,W3 is playing with M1,play4,rating_causation,"{""Q0"":3}",[0],M1 asked to play with W3,W3 asked to play with M1
null,Luke is shouting at Jane,,html-keyboard-response,76,465424,0.0-30.0-0.0,77180,4B,conjoined,woman,,null,M2 is shouting at W4,shout3,sentence,,,,
4976.495,,,survey-likert-extra-labels,77,470404,0.0-30.0-1.0-0.0,77180,4B,conjoined,woman,,,M2 is shouting at W4,shout3,rating_causation,"{""Q0"":3}",[0],W4 shouted at M2 first,M2 shouted at W4 first
4754.525,,,survey-likert-extra-labels,78,475179,0.0-30.0-2.0,77180,4B,conjoined,woman,,,M2 is shouting at W4,shout3,rating_volition,"{""Q0"":5}",[0],W4 wanted to shout at M2,M2 wanted to shout at W4
null,Jane is dancing with Luke,,html-keyboard-response,79,477204,0.0-31.0-0.0,77180,4B,conjoined,woman,,null,W4 is dancing with M2,dance4,sentence,,,,
3086.955,,,survey-likert-extra-labels,80,480294,0.0-31.0-1.0-0.0,77180,4B,conjoined,woman,,,W4 is dancing with M2,dance4,rating_causation,"{""Q0"":3}",[0],W4 asked M2 to dance,M2 asked W4 to dance
3960.845,,,survey-likert-extra-labels,81,484274,0.0-31.0-2.0,77180,4B,conjoined,woman,,,W4 is dancing with M2,dance4,rating_volition,"{""Q0"":3}",[0],W4 wanted to dance with M2,M2 wanted to dance with W4
null,Ruth is carrying Jane,,html-keyboard-response,82,486302,0.0-32.0-0.0,77180,4B,conjoined,woman,,null,W2 is carrying W4,carry,sentence,,,,
4168.365,,,survey-likert-extra-labels,83,490473,0.0-32.0-2.0,77180,4B,conjoined,woman,,,W2 is carrying W4,carry,rating_volition,"{""Q0"":0}",[0],W2 is transporting W4,W4 is transporting W2
12015.6,,,survey-likert-extra-labels,84,502508,0.0-32.0-3.0-0.0,77180,4B,conjoined,woman,,,W2 is carrying W4,carry,rating_causation,"{""Q0"":6}",[0],W2 is being moved by W4,W4 is being moved by W2
null,Jane is kissing Luke,,html-keyboard-response,85,504528,0.0-33.0-0.0,77180,4B,conjoined,woman,,null,W4 is kissing M2,kiss3,sentence,,,,
2854.175,,,survey-likert-extra-labels,86,507387,0.0-33.0-1.0-0.0,77180,4B,conjoined,woman,,,W4 is kissing M2,kiss3,rating_causation,"{""Q0"":3}",[0],W4 asked to kiss M2,M2 asked to kiss W4
5698.275,,,survey-likert-extra-labels,87,513101,0.0-33.0-2.0,77180,4B,conjoined,woman,,,W4 is kissing M2,kiss3,rating_volition,"{""Q0"":3}",[0],W4 wanted to kiss M2,M2 wanted to kiss W4
null,Mike is touching Luke,,html-keyboard-response,88,515129,0.0-34.0-0.0,77180,4B,conjoined,woman,,null,M4 is touching M2,touch2,sentence,,,,
3500.67,,,survey-likert-extra-labels,89,518632,0.0-34.0-2.0,77180,4B,conjoined,woman,,,M4 is touching M2,touch2,rating_volition,"{""Q0"":3}",[0],M4 wanted to touch M2,M2 wanted to touch M4
3269.26,,,survey-likert-extra-labels,90,521916,0.0-34.0-3.0-0.0,77180,4B,conjoined,woman,,,M4 is touching M2,touch2,rating_causation,"{""Q0"":3}",[0],M4 asked to touch M2,M2 asked to touch M4
null,Fred is shouting at Dave,,html-keyboard-response,91,523941,0.0-35.0-0.0,77180,4B,conjoined,woman,,null,M1 is shouting at M3,shout2,sentence,,,,
3203.73,,,survey-likert-extra-labels,92,527148,0.0-35.0-1.0-0.0,77180,4B,conjoined,woman,,,M1 is shouting at M3,shout2,rating_causation,"{""Q0"":3}",[0],M3 shouted at M1 first,M1 shouted at M3 first
7498.34,,,survey-likert-extra-labels,93,534662,0.0-35.0-2.0,77180,4B,conjoined,woman,,,M1 is shouting at M3,shout2,rating_volition,"{""Q0"":5}",[0],M3 wanted to shout at M1,M1 wanted to shout at M3
null,Dave is fighting with Kate,,html-keyboard-response,94,536687,0.0-36.0-0.0,77180,4B,conjoined,woman,,null,M3 is fighting with W1,fight4,sentence,,,,
3919.815,,,survey-likert-extra-labels,95,540611,0.0-36.0-1.0-0.0,77180,4B,conjoined,woman,,,M3 is fighting with W1,fight4,rating_causation,"{""Q0"":3}",[0],W1 started the fight with M3,M3 started the fight with W1
4239.505,,,survey-likert-extra-labels,96,544865,0.0-36.0-2.0,77180,4B,conjoined,woman,,,M3 is fighting with W1,fight4,rating_volition,"{""Q0"":5}",[0],W1 wanted to fight M3,M3 wanted to fight W1
null,Jane is talking to Luke,,html-keyboard-response,97,546885,0.0-37.0-0.0,77180,4B,conjoined,woman,,null,W4 is talking to M2,talk4,sentence,,,,
10152.11,,,survey-likert-extra-labels,98,557040,0.0-37.0-2.0,77180,4B,conjoined,woman,,,W4 is talking to M2,talk4,rating_volition,"{""Q0"":2}",[0],W4 wanted to talk to M2,M2 wanted to talk to W4
3782.61,,,survey-likert-extra-labels,99,560837,0.0-37.0-3.0-0.0,77180,4B,conjoined,woman,,,W4 is talking to M2,talk4,rating_causation,"{""Q0"":3}",[0],W4 started a conversation with M2,M2 started a conversation with W4
null,Mike is flirting with Luke,,html-keyboard-response,100,562864,0.0-38.0-0.0,77180,4B,conjoined,woman,,null,M4 is flirting with M2,flirt2,sentence,,,,
5786.37,,,survey-likert-extra-labels,101,568653,0.0-38.0-2.0,77180,4B,conjoined,woman,,,M4 is flirting with M2,flirt2,rating_volition,"{""Q0"":0}",[0],M4 wanted to flirt with M2,M2 wanted to flirt with M4
4820.88,,,survey-likert-extra-labels,102,573488,0.0-38.0-3.0-0.0,77180,4B,conjoined,woman,,,M4 is flirting with M2,flirt2,rating_causation,"{""Q0"":3}",[0],M4 started flirting with M2 first,M2 started flirting with M4 first
null,Mike is marrying Luke,,html-keyboard-response,103,575510,0.0-39.0-0.0,77180,4B,conjoined,woman,,null,M4 is marrying M2,marry2,sentence,,,,
4918.77,,,survey-likert-extra-labels,104,580433,0.0-39.0-1.0-0.0,77180,4B,conjoined,woman,,,M4 is marrying M2,marry2,rating_causation,"{""Q0"":3}",[0],M4 asked to marry M2,M2 asked to marry M4
6279.905,,,survey-likert-extra-labels,105,586732,0.0-39.0-2.0,77180,4B,conjoined,woman,,,M4 is marrying M2,marry2,rating_volition,"{""Q0"":3}",[0],M4 wanted to marry M2,M2 wanted to marry M4
null,Jane is marrying Ruth,,html-keyboard-response,106,588745,0.0-40.0-0.0,77180,4B,conjoined,woman,,null,W4 is marrying W2,marry1,sentence,,,,
6592.435,,,survey-likert-extra-labels,107,595341,0.0-40.0-2.0,77180,4B,conjoined,woman,,,W4 is marrying W2,marry1,rating_volition,"{""Q0"":3}",[0],W4 wanted to marry W2,W2 wanted to marry W4
2963.995,,,survey-likert-extra-labels,108,598320,0.0-40.0-3.0-0.0,77180,4B,conjoined,woman,,,W4 is marrying W2,marry1,rating_causation,"{""Q0"":3}",[0],W4 asked to marry W2,W2 asked to marry W4
null,Kate is marrying Dave,,html-keyboard-response,109,600338,0.0-41.0-0.0,77180,4B,conjoined,woman,,null,W1 is marrying M3,marry3,sentence,,,,
2516.495,,,survey-likert-extra-labels,110,602858,0.0-41.0-2.0,77180,4B,conjoined,woman,,,W1 is marrying M3,marry3,rating_volition,"{""Q0"":3}",[0],W1 wanted to marry M3,M3 wanted to marry W1
3522.65,,,survey-likert-extra-labels,111,606396,0.0-41.0-3.0-0.0,77180,4B,conjoined,woman,,,W1 is marrying M3,marry3,rating_causation,"{""Q0"":3}",[0],W1 asked to marry M3,M3 asked to marry W1
null,Fred is arguing with Dave,,html-keyboard-response,112,608422,0.0-42.0-0.0,77180,4B,conjoined,woman,,null,M1 is arguing with M3,argue2,sentence,,,,
4125.44,,,survey-likert-extra-labels,113,612551,0.0-42.0-2.0,77180,4B,conjoined,woman,,,M1 is arguing with M3,argue2,rating_volition,"{""Q0"":5}",[0],M3 wanted to argue with M1,M1 wanted to argue with M3
3344.99,,,survey-likert-extra-labels,114,615912,0.0-42.0-3.0-0.0,77180,4B,conjoined,woman,,,M1 is arguing with M3,argue2,rating_causation,"{""Q0"":3}",[0],M3 started an argument with M1,M1 started an argument with M3
null,Luke is fighting with Mike,,html-keyboard-response,115,617933,0.0-43.0-0.0,77180,4B,conjoined,woman,,null,M2 is fighting with M4,fight2,sentence,,,,
20023.52,,,survey-likert-extra-labels,116,637960,0.0-43.0-1.0-0.0,77180,4B,conjoined,woman,,,M2 is fighting with M4,fight2,rating_causation,"{""Q0"":3}",[0],M4 started the fight with M2,M2 started the fight with M4
7208.09,,,survey-likert-extra-labels,117,645185,0.0-43.0-2.0,77180,4B,conjoined,woman,,,M2 is fighting with M4,fight2,rating_volition,"{""Q0"":5}",[0],M4 wanted to fight M2,M2 wanted to fight M4
null,Ruth is arguing with Mike,,html-keyboard-response,118,647209,0.0-44.0-0.0,77180,4B,conjoined,woman,,null,W2 is arguing with M4,argue3,sentence,,,,
2614.175,,,survey-likert-extra-labels,119,649825,0.0-44.0-1.0-0.0,77180,4B,conjoined,woman,,,W2 is arguing with M4,argue3,rating_causation,"{""Q0"":3}",[0],M4 started an argument with W2,W2 started an argument with M4
4174.235,,,survey-likert-extra-labels,120,654015,0.0-44.0-2.0,77180,4B,conjoined,woman,,,W2 is arguing with M4,argue3,rating_volition,"{""Q0"":5}",[0],M4 wanted to argue with W2,W2 wanted to argue with M4
null,Beth is fighting with Fred,,html-keyboard-response,121,656041,0.0-45.0-0.0,77180,4B,conjoined,woman,,null,W3 is fighting with M1,fight3,sentence,,,,
4437.095,,,survey-likert-extra-labels,122,660481,0.0-45.0-1.0-0.0,77180,4B,conjoined,woman,,,W3 is fighting with M1,fight3,rating_causation,"{""Q0"":3}",[0],M1 started the fight with W3,W3 started the fight with M1
5633.935,,,survey-likert-extra-labels,123,666130,0.0-45.0-2.0,77180,4B,conjoined,woman,,,W3 is fighting with M1,fight3,rating_volition,"{""Q0"":5}",[0],M1 wanted to fight W3,W3 wanted to fight M1
null,Ruth is fighting with Jane,,html-keyboard-response,124,668153,0.0-46.0-0.0,77180,4B,conjoined,woman,,null,W2 is fighting with W4,fight1,sentence,,,,
3710.54,,,survey-likert-extra-labels,125,671867,0.0-46.0-2.0,77180,4B,conjoined,woman,,,W2 is fighting with W4,fight1,rating_volition,"{""Q0"":5}",[0],W4 wanted to fight W2,W2 wanted to fight W4
3991.635,,,survey-likert-extra-labels,126,675872,0.0-46.0-3.0-0.0,77180,4B,conjoined,woman,,,W2 is fighting with W4,fight1,rating_causation,"{""Q0"":3}",[0],W4 started the fight with W2,W2 started the fight with W4
null,Luke is reminding Jane,,html-keyboard-response,127,677900,0.0-47.0-0.0,77180,4B,conjoined,woman,,null,M2 is reminding W4,remind,sentence,,,,
5019.525,,,survey-likert-extra-labels,128,682922,0.0-47.0-2.0,77180,4B,conjoined,woman,,,M2 is reminding W4,remind,rating_volition,"{""Q0"":0}",[0],M2 is telling W4 again,W4 is telling M2 again
6320.7,,,survey-likert-extra-labels,129,689257,0.0-47.0-3.0-0.0,77180,4B,conjoined,woman,,,M2 is reminding W4,remind,rating_causation,"{""Q0"":0}",[0],M2 is remembering,W4 is remembering
null,Beth is dancing with Kate,,html-keyboard-response,130,691279,0.0-48.0-0.0,77180,4B,conjoined,woman,,null,W3 is dancing with W1,dance1,sentence,,,,
3205.06,,,survey-likert-extra-labels,131,694487,0.0-48.0-2.0,77180,4B,conjoined,woman,,,W3 is dancing with W1,dance1,rating_volition,"{""Q0"":3}",[0],W3 wanted to dance with W1,W1 wanted to dance with W3
2771.285,,,survey-likert-extra-labels,132,697272,0.0-48.0-3.0-0.0,77180,4B,conjoined,woman,,,W3 is dancing with W1,dance1,rating_causation,"{""Q0"":3}",[0],W3 asked W1 to dance,W1 asked W3 to dance
null,Ruth is playing with Jane,,html-keyboard-response,133,699295,0.0-49.0-0.0,77180,4B,conjoined,woman,,null,W2 is playing with W4,play1,sentence,,,,
10895.47,,,survey-likert-extra-labels,134,710193,0.0-49.0-1.0-0.0,77180,4B,conjoined,woman,,,W2 is playing with W4,play1,rating_causation,"{""Q0"":3}",[0],W4 asked to play with W2,W2 asked to play with W4
2906.845,,,survey-likert-extra-labels,135,713114,0.0-49.0-2.0,77180,4B,conjoined,woman,,,W2 is playing with W4,play1,rating_volition,"{""Q0"":3}",[0],W4 wanted to play with W2,W2 wanted to play with W4
null,Dave is kissing Fred,,html-keyboard-response,136,715140,0.0-50.0-0.0,77180,4B,conjoined,woman,,null,M3 is kissing M1,kiss2,sentence,,,,
5387.39,,,survey-likert-extra-labels,137,720530,0.0-50.0-2.0,77180,4B,conjoined,woman,,,M3 is kissing M1,kiss2,rating_volition,"{""Q0"":3}",[0],M3 wanted to kiss M1,M1 wanted to kiss M3
2195.825,,,survey-likert-extra-labels,138,722740,0.0-50.0-3.0-0.0,77180,4B,conjoined,woman,,,M3 is kissing M1,kiss2,rating_causation,"{""Q0"":3}",[0],M3 asked to kiss M1,M1 asked to kiss M3
null,Luke is posing for Mike,,html-keyboard-response,139,724766,0.0-51.0-0.0,77180,4B,conjoined,woman,,null,M2 is posing for M4,pose,sentence,,,,
3660.54,,,survey-likert-extra-labels,140,728429,0.0-51.0-2.0,77180,4B,conjoined,woman,,,M2 is posing for M4,pose,rating_volition,"{""Q0"":0}",[0],M2 is modelling for M4,M4 is modelling for M2
10578.88,,,survey-likert-extra-labels,141,739022,0.0-51.0-3.0-0.0,77180,4B,conjoined,woman,,,M2 is posing for M4,pose,rating_causation,"{""Q0"":6}",[0],M2 is photographing M4,M4 is photographing M2
null,Mike is dancing with Ruth,,html-keyboard-response,142,741045,0.0-52.0-0.0,77180,4B,conjoined,woman,,null,M4 is dancing with W2,dance3,sentence,,,,
3214.445,,,survey-likert-extra-labels,143,744263,0.0-52.0-1.0-0.0,77180,4B,conjoined,woman,,,M4 is dancing with W2,dance3,rating_causation,"{""Q0"":3}",[0],M4 asked W2 to dance,W2 asked M4 to dance
3469.425,,,survey-likert-extra-labels,144,747746,0.0-52.0-2.0,77180,4B,conjoined,woman,,,M4 is dancing with W2,dance3,rating_volition,"{""Q0"":3}",[0],M4 wanted to dance with W2,W2 wanted to dance with M4
null,Dave is talking to Fred,,html-keyboard-response,145,749766,0.0-53.0-0.0,77180,4B,conjoined,woman,,null,M3 is talking to M1,talk2,sentence,,,,
2784.225,,,survey-likert-extra-labels,146,752553,0.0-53.0-2.0,77180,4B,conjoined,woman,,,M3 is talking to M1,talk2,rating_volition,"{""Q0"":3}",[0],M3 wanted to talk to M1,M1 wanted to talk to M3
2969.65,,,survey-likert-extra-labels,147,755536,0.0-53.0-3.0-0.0,77180,4B,conjoined,woman,,,M3 is talking to M1,talk2,rating_causation,"{""Q0"":3}",[0],M3 started a conversation with M1,M1 started a conversation with M3
null,Ruth is teaching Mike,,html-keyboard-response,148,757563,0.0-54.0-0.0,77180,4B,conjoined,woman,,null,W2 is teaching M4,teach,sentence,,,,
4217.855,,,survey-likert-extra-labels,149,761784,0.0-54.0-1.0-0.0,77180,4B,conjoined,woman,,,W2 is teaching M4,teach,rating_causation,"{""Q0"":6}",[0],W2 is learning from M4,M4 is learning from W2
6700.945,,,survey-likert-extra-labels,150,768499,0.0-54.0-2.0,77180,4B,conjoined,woman,,,W2 is teaching M4,teach,rating_volition,"{""Q0"":0}",[0],W2 is educating M4,M4 is educating W2
1815.82,<p>Thank you for completing that task.</p><p>The final part of this session is a short questionnaire.</p><p>Press Continue.</p>,0,html-button-response,151,770328,0.0-55.0,77180,4B,conjoined,woman,,,,,,,,,
33890.35,,,survey-text,152,805264,0.0-56.0,77180,4B,conjoined,woman,,,,,demographics,"{""Q0"":""27"",""Q1"":""english"",""Q2"":""english"",""Q3"":""United Kingdom"",""Q4"":""scottish"",""Q5"":""white"",""Q6"":""female""}",,,
1983.92,<p>Have you lived in the UK for the last 5 years or more?</p>,0,html-button-response,153,807254,0.0-57.0,77180,4B,conjoined,woman,,,,,fiveyears,,,,
8691.48,,,survey-text,154,816964,0.0-58.0,77180,4B,conjoined,woman,,,,,worker_id,"{""Q0"":""5cd2f7921ed56300160fd149""}",,,
22079.315,,,external-html,155,839165,0.0-59.0,77180,4B,conjoined,woman,debrief.html,,,,,,,,
