"rt","stimulus","button_pressed","trial_type","trial_index","time_elapsed","internal_node_id","subject","list","condition","ppt_gender","url","key_press","sentence_type","verb","test_part","responses","question_order","left_part","right_part"
"2345.7997586349224","Welcome to the experiment. Press Continue to begin.","0","html-button-response","0","2354","0.0-0.0","87843","2A","conjoined","woman","","","","","","","","",""
"16515.69984416256","","","external-html","1","19972","0.0-1.0","87843","2A","conjoined","woman","consent.html","","","","","","","",""
"2493.699988475484","<p>Welcome.</p><p>In this experiment we will ask you to imagine some situations.</p><p>Each trial starts with a description of an event.</p><p>Then you will see alternative descriptions of that event, and you will rate on a scale how best they match the original description.</p><p>You will give your answer by clicking a button on a rating scale.</p><p>To do this task, you will have to use your imagination to visualise these events.</p><br><p>Ready?</p>","0","html-button-response","2","22472","0.0-2.0","87843","2A","conjoined","woman","","","","","","","","",""
"2046.1001141850356","<p>Before the experiment starts, you will watch an example trial. Press 'Continue'.</p>","0","html-button-response","3","25529","0.0-3.0","87843","2A","conjoined","woman","","","","","","","","",""
"null","The police officer is arresting the robber","","html-keyboard-response","4","28554","0.0-4.0","87843","2A","conjoined","woman","","null","","","","","","",""
"10938.000157991875","<img src='img/Example-trial.jpg' style='height:550px;''></img>","0","html-button-response","5","39495","0.0-5.0","87843","2A","conjoined","woman","","","","","","","","",""
"1360.499842521087","<p>Ready to start the experiment?</p><br><p><strong>Remember to give an answer by clicking a button on the rating scale.</strong></p><p>Press 'Continue' to begin.</p>","0","html-button-response","6","41862","0.0-6.0","87843","2A","conjoined","woman","","","","","","","","",""
"null","Dave and Jane are arguing with each other","","html-keyboard-response","7","44885","0.0-7.0-0.0","87843","2A","conjoined","woman","","null","M4 and W2 are arguing with each other","argue3","sentence","","","",""
"4191.4998319199","","","survey-likert-extra-labels","8","49086","0.0-7.0-2.0","87843","2A","conjoined","woman","","","M4 and W2 are arguing with each other","argue3","rating_volition","{""Q0"":3}","[0]","M4 wanted to argue with W2","W2 wanted to argue with M4"
"4634.100049893968","","","survey-likert-extra-labels","9","53728","0.0-7.0-3.0-0.0","87843","2A","conjoined","woman","","","M4 and W2 are arguing with each other","argue3","rating_causation","{""Q0"":3}","[0]","M4 started an argument with W2","W2 started an argument with M4"
"null","Ruth is chasing Kate","","html-keyboard-response","10","55738","0.0-8.0-0.0","87843","2A","conjoined","woman","","null","W1 is chasing W3","chase","sentence","","","",""
"4383.10020412413","","","survey-likert-extra-labels","11","60126","0.0-8.0-2.0","87843","2A","conjoined","woman","","","W1 is chasing W3","chase","rating_volition","{""Q0"":0}","[0]","W1 is behind W3","W3 is behind W1"
"4317.400206073384","","","survey-likert-extra-labels","12","64450","0.0-8.0-3.0-0.0","87843","2A","conjoined","woman","","","W1 is chasing W3","chase","rating_causation","{""Q0"":6}","[0]","W1 is running away from W3","W3 is running away from W1"
"null","Mike and Beth are talking to each other","","html-keyboard-response","13","66472","0.0-9.0-0.0","87843","2A","conjoined","woman","","null","M2 and W4 are talking to each other","talk4","sentence","","","",""
"2609.1000584433204","","","survey-likert-extra-labels","14","69085","0.0-9.0-1.0-0.0","87843","2A","conjoined","woman","","","M2 and W4 are talking to each other","talk4","rating_causation","{""Q0"":3}","[0]","W4 started a conversation with M2","M2 started a conversation with W4"
"3424.299834382109","","","survey-likert-extra-labels","15","72517","0.0-9.0-2.0","87843","2A","conjoined","woman","","","M2 and W4 are talking to each other","talk4","rating_volition","{""Q0"":3}","[0]","W4 wanted to talk to M2","M2 wanted to talk to W4"
"null","Fred and Luke are shouting at each other","","html-keyboard-response","16","74523","0.0-10.0-0.0","87843","2A","conjoined","woman","","null","M3 and M1 are shouting at each other","shout2","sentence","","","",""
"2482.5000059845333","","","survey-likert-extra-labels","17","77011","0.0-10.0-2.0","87843","2A","conjoined","woman","","","M3 and M1 are shouting at each other","shout2","rating_volition","{""Q0"":3}","[0]","M3 wanted to shout at M1","M1 wanted to shout at M3"
"2496.799980575888","","","survey-likert-extra-labels","18","79518","0.0-10.0-3.0-0.0","87843","2A","conjoined","woman","","","M3 and M1 are shouting at each other","shout2","rating_causation","{""Q0"":3}","[0]","M3 shouted at M1 first","M1 shouted at M3 first"
"null","Ruth and Kate are talking to each other","","html-keyboard-response","19","81535","0.0-11.0-0.0","87843","2A","conjoined","woman","","null","W1 and W3 are talking to each other","talk1","sentence","","","",""
"2958.3000621366373","","","survey-likert-extra-labels","20","84499","0.0-11.0-1.0-0.0","87843","2A","conjoined","woman","","","W1 and W3 are talking to each other","talk1","rating_causation","{""Q0"":3}","[0]","W3 started a conversation with W1","W1 started a conversation with W3"
"3950.900092025142","","","survey-likert-extra-labels","21","88457","0.0-11.0-2.0","87843","2A","conjoined","woman","","","W1 and W3 are talking to each other","talk1","rating_volition","{""Q0"":3}","[0]","W3 wanted to talk to W1","W1 wanted to talk to W3"
"null","Kate is feeding Luke","","html-keyboard-response","22","90465","0.0-12.0-0.0","87843","2A","conjoined","woman","","null","W3 is feeding M1","feed","sentence","","","",""
"5101.599719034362","","","survey-likert-extra-labels","23","95573","0.0-12.0-2.0","87843","2A","conjoined","woman","","","W3 is feeding M1","feed","rating_volition","{""Q0"":0}","[0]","W3 is giving M1 food","M1 is giving W3 food"
"4772.400050475335","","","survey-likert-extra-labels","24","100354","0.0-12.0-3.0-0.0","87843","2A","conjoined","woman","","","W3 is feeding M1","feed","rating_causation","{""Q0"":6}","[0]","W3 is eating M1's food","M1 is eating W3's food"
"null","Ruth and Fred are fighting each other","","html-keyboard-response","25","102359","0.0-13.0-0.0","87843","2A","conjoined","woman","","null","W1 and M3 are fighting each other","fight4","sentence","","","",""
"4229.700010361805","","","survey-likert-extra-labels","26","106593","0.0-13.0-1.0-0.0","87843","2A","conjoined","woman","","","W1 and M3 are fighting each other","fight4","rating_causation","{""Q0"":3}","[0]","W1 started the fight with M3","M3 started the fight with W1"
"15543.699971376801","","","survey-likert-extra-labels","27","122146","0.0-13.0-2.0","87843","2A","conjoined","woman","","","W1 and M3 are fighting each other","fight4","rating_volition","{""Q0"":3}","[0]","W1 wanted to fight M3","M3 wanted to fight W1"
"null","Luke and Fred are dancing with each other","","html-keyboard-response","28","124154","0.0-14.0-0.0","87843","2A","conjoined","woman","","null","M1 and M3 are dancing with each other","dance2","sentence","","","",""
"3071.1999619725247","","","survey-likert-extra-labels","29","127230","0.0-14.0-1.0-0.0","87843","2A","conjoined","woman","","","M1 and M3 are dancing with each other","dance2","rating_causation","{""Q0"":3}","[0]","M3 asked M1 to dance","M1 asked M3 to dance"
"3571.29998929624","","","survey-likert-extra-labels","30","130811","0.0-14.0-2.0","87843","2A","conjoined","woman","","","M1 and M3 are dancing with each other","dance2","rating_volition","{""Q0"":3}","[0]","M3 wanted to dance with M1","M1 wanted to dance with M3"
"null","Mike and Beth are kissing each other","","html-keyboard-response","31","132828","0.0-15.0-0.0","87843","2A","conjoined","woman","","null","M2 and W4 are kissing each other","kiss3","sentence","","","",""
"2210.1001264961087","","","survey-likert-extra-labels","32","135044","0.0-15.0-2.0","87843","2A","conjoined","woman","","","M2 and W4 are kissing each other","kiss3","rating_volition","{""Q0"":3}","[0]","W4 wanted to kiss M2","M2 wanted to kiss W4"
"2340.7997603447875","","","survey-likert-extra-labels","33","137393","0.0-15.0-3.0-0.0","87843","2A","conjoined","woman","","","M2 and W4 are kissing each other","kiss3","rating_causation","{""Q0"":3}","[0]","W4 asked to kiss M2","M2 asked to kiss W4"
"null","Fred and Ruth are touching each other","","html-keyboard-response","34","139404","0.0-16.0-0.0","87843","2A","conjoined","woman","","null","M3 and W1 are touching each other","touch4","sentence","","","",""
"4128.500058648497","","","survey-likert-extra-labels","35","143539","0.0-16.0-1.0-0.0","87843","2A","conjoined","woman","","","M3 and W1 are touching each other","touch4","rating_causation","{""Q0"":3}","[0]","W1 asked to touch M3","M3 asked to touch W1"
"5533.400063812325","","","survey-likert-extra-labels","36","149081","0.0-16.0-2.0","87843","2A","conjoined","woman","","","M3 and W1 are touching each other","touch4","rating_volition","{""Q0"":3}","[0]","W1 wanted to touch M3","M3 wanted to touch W1"
"null","Ruth and Fred are playing with each other","","html-keyboard-response","37","151097","0.0-17.0-0.0","87843","2A","conjoined","woman","","null","W1 and M3 are playing with each other","play3","sentence","","","",""
"1487.9001135694852","","","survey-likert-extra-labels","38","152590","0.0-17.0-1.0-0.0","87843","2A","conjoined","woman","","","W1 and M3 are playing with each other","play3","rating_causation","{""Q0"":3}","[0]","W1 asked to play with M3","M3 asked to play with W1"
"7062.600005950342","","","survey-likert-extra-labels","39","159663","0.0-17.0-2.0","87843","2A","conjoined","woman","","","W1 and M3 are playing with each other","play3","rating_volition","{""Q0"":3}","[0]","W1 wanted to play with M3","M3 wanted to play with W1"
"null","Jane and Dave are kissing each other","","html-keyboard-response","40","161683","0.0-18.0-0.0","87843","2A","conjoined","woman","","null","W2 and M4 are kissing each other","kiss4","sentence","","","",""
"2620.199842623668","","","survey-likert-extra-labels","41","164306","0.0-18.0-1.0-0.0","87843","2A","conjoined","woman","","","W2 and M4 are kissing each other","kiss4","rating_causation","{""Q0"":3}","[0]","M4 asked to kiss W2","W2 asked to kiss M4"
"2237.3000351207156","","","survey-likert-extra-labels","42","166553","0.0-18.0-2.0","87843","2A","conjoined","woman","","","W2 and M4 are kissing each other","kiss4","rating_volition","{""Q0"":3}","[0]","M4 wanted to kiss W2","W2 wanted to kiss M4"
"null","Luke and Kate are playing with each other","","html-keyboard-response","43","168575","0.0-19.0-0.0","87843","2A","conjoined","woman","","null","M1 and W3 are playing with each other","play4","sentence","","","",""
"3877.600069215492","","","survey-likert-extra-labels","44","172459","0.0-19.0-2.0","87843","2A","conjoined","woman","","","M1 and W3 are playing with each other","play4","rating_volition","{""Q0"":3}","[0]","M1 wanted to play with W3","W3 wanted to play with M1"
"1826.9000660351303","","","survey-likert-extra-labels","45","174293","0.0-19.0-3.0-0.0","87843","2A","conjoined","woman","","","M1 and W3 are playing with each other","play4","rating_causation","{""Q0"":3}","[0]","M1 asked to play with W3","W3 asked to play with M1"
"null","Jane and Beth are touching each other","","html-keyboard-response","46","176306","0.0-20.0-0.0","87843","2A","conjoined","woman","","null","W2 and W4 are touching each other","touch1","sentence","","","",""
"1419.0002670815156","","","survey-likert-extra-labels","47","177732","0.0-20.0-1.0-0.0","87843","2A","conjoined","woman","","","W2 and W4 are touching each other","touch1","rating_causation","{""Q0"":3}","[0]","W4 asked to touch W2","W2 asked to touch W4"
"2982.700231618801","","","survey-likert-extra-labels","48","180722","0.0-20.0-2.0","87843","2A","conjoined","woman","","","W2 and W4 are touching each other","touch1","rating_volition","{""Q0"":3}","[0]","W4 wanted to touch W2","W2 wanted to touch W4"
"null","Jane and Dave are talking to each other","","html-keyboard-response","49","182728","0.0-21.0-0.0","87843","2A","conjoined","woman","","null","W2 and M4 are talking to each other","talk3","sentence","","","",""
"1799.8998700841912","","","survey-likert-extra-labels","50","184534","0.0-21.0-1.0-0.0","87843","2A","conjoined","woman","","","W2 and M4 are talking to each other","talk3","rating_causation","{""Q0"":3}","[0]","M4 started a conversation with W2","W2 started a conversation with M4"
"2661.900122460822","","","survey-likert-extra-labels","51","187201","0.0-21.0-2.0","87843","2A","conjoined","woman","","","W2 and M4 are talking to each other","talk3","rating_volition","{""Q0"":3}","[0]","M4 wanted to talk to W2","W2 wanted to talk to M4"
"null","Fred is hiring Ruth","","html-keyboard-response","52","189207","0.0-22.0-0.0","87843","2A","conjoined","woman","","null","M3 is hiring W1","hire","sentence","","","",""
"4674.200234525604","","","survey-likert-extra-labels","53","193886","0.0-22.0-1.0-0.0","87843","2A","conjoined","woman","","","M3 is hiring W1","hire","rating_causation","{""Q0"":6}","[0]","M3 will work for W1","W1 will work for M3"
"5684.900251384912","","","survey-likert-extra-labels","54","199579","0.0-22.0-2.0","87843","2A","conjoined","woman","","","M3 is hiring W1","hire","rating_volition","{""Q0"":0}","[0]","M3 is employing W1","W1 is employing M3"
"null","Luke is driving Fred","","html-keyboard-response","55","201588","0.0-23.0-0.0","87843","2A","conjoined","woman","","null","M1 is driving M3","drive","sentence","","","",""
"10692.400077833241","","","survey-likert-extra-labels","56","212285","0.0-23.0-2.0","87843","2A","conjoined","woman","","","M1 is driving M3","drive","rating_volition","{""Q0"":0}","[0]","M3 is M1's passenger","M1 is M3's passenger"
"3734.3000703439757","","","survey-likert-extra-labels","57","216026","0.0-23.0-3.0-0.0","87843","2A","conjoined","woman","","","M1 is driving M3","drive","rating_causation","{""Q0"":6}","[0]","M3 is taking M1 somewhere","M1 is taking M3 somewhere"
"null","Beth and Jane are playing with each other","","html-keyboard-response","58","218030","0.0-24.0-0.0","87843","2A","conjoined","woman","","null","W4 and W2 are playing with each other","play1","sentence","","","",""
"1810.9999962383008","","","survey-likert-extra-labels","59","219847","0.0-24.0-2.0","87843","2A","conjoined","woman","","","W4 and W2 are playing with each other","play1","rating_volition","{""Q0"":3}","[0]","W4 wanted to play with W2","W2 wanted to play with W4"
"2444.8001351480197","","","survey-likert-extra-labels","60","222299","0.0-24.0-3.0-0.0","87843","2A","conjoined","woman","","","W4 and W2 are playing with each other","play1","rating_causation","{""Q0"":3}","[0]","W4 asked to play with W2","W2 asked to play with W4"
"null","Beth and Jane are fighting each other","","html-keyboard-response","61","224315","0.0-25.0-0.0","87843","2A","conjoined","woman","","null","W4 and W2 are fighting each other","fight1","sentence","","","",""
"1720.3998630737187","","","survey-likert-extra-labels","62","226041","0.0-25.0-2.0","87843","2A","conjoined","woman","","","W4 and W2 are fighting each other","fight1","rating_volition","{""Q0"":3}","[0]","W4 wanted to fight W2","W2 wanted to fight W4"
"3638.2998295945","","","survey-likert-extra-labels","63","229687","0.0-25.0-3.0-0.0","87843","2A","conjoined","woman","","","W4 and W2 are fighting each other","fight1","rating_causation","{""Q0"":3}","[0]","W4 started the fight with W2","W2 started the fight with W4"
"null","Dave and Mike are fighting each other","","html-keyboard-response","64","231706","0.0-26.0-0.0","87843","2A","conjoined","woman","","null","M4 and M2 are fighting each other","fight2","sentence","","","",""
"2883.30008778465","","","survey-likert-extra-labels","65","234593","0.0-26.0-2.0","87843","2A","conjoined","woman","","","M4 and M2 are fighting each other","fight2","rating_volition","{""Q0"":3}","[0]","M4 wanted to fight M2","M2 wanted to fight M4"
"2940.70004079747","","","survey-likert-extra-labels","66","237539","0.0-26.0-3.0-0.0","87843","2A","conjoined","woman","","","M4 and M2 are fighting each other","fight2","rating_causation","{""Q0"":3}","[0]","M4 started the fight with M2","M2 started the fight with M4"
"null","Mike is reminding Beth","","html-keyboard-response","67","239547","0.0-27.0-0.0","87843","2A","conjoined","woman","","null","M2 is reminding W4","remind","sentence","","","",""
"6775.500042575732","","","survey-likert-extra-labels","68","246329","0.0-27.0-2.0","87843","2A","conjoined","woman","","","M2 is reminding W4","remind","rating_volition","{""Q0"":0}","[0]","M2 is telling W4 again","W4 is telling M2 again"
"5646.500018295599","","","survey-likert-extra-labels","69","251983","0.0-27.0-3.0-0.0","87843","2A","conjoined","woman","","","M2 is reminding W4","remind","rating_causation","{""Q0"":6}","[0]","M2 is remembering","W4 is remembering"
"null","Dave and Mike are playing with each other","","html-keyboard-response","70","253997","0.0-28.0-0.0","87843","2A","conjoined","woman","","null","M4 and M2 are playing with each other","play2","sentence","","","",""
"7487.599860611488","","","survey-likert-extra-labels","71","261492","0.0-28.0-2.0","87843","2A","conjoined","woman","","","M4 and M2 are playing with each other","play2","rating_volition","{""Q0"":3}","[0]","M4 wanted to play with M2","M2 wanted to play with M4"
"5838.200246836641","","","survey-likert-extra-labels","72","267334","0.0-28.0-3.0-0.0","87843","2A","conjoined","woman","","","M4 and M2 are playing with each other","play2","rating_causation","{""Q0"":3}","[0]","M4 asked to play with M2","M2 asked to play with M4"
"null","Luke and Fred are talking to each other","","html-keyboard-response","73","269345","0.0-29.0-0.0","87843","2A","conjoined","woman","","null","M1 and M3 are talking to each other","talk2","sentence","","","",""
"2896.099823507364","","","survey-likert-extra-labels","74","272246","0.0-29.0-1.0-0.0","87843","2A","conjoined","woman","","","M1 and M3 are talking to each other","talk2","rating_causation","{""Q0"":3}","[0]","M3 started a conversation with M1","M1 started a conversation with M3"
"3887.000243827235","","","survey-likert-extra-labels","75","276139","0.0-29.0-2.0","87843","2A","conjoined","woman","","","M1 and M3 are talking to each other","talk2","rating_volition","{""Q0"":3}","[0]","M3 wanted to talk to M1","M1 wanted to talk to M3"
"null","Ruth and Kate are dancing with each other","","html-keyboard-response","76","278146","0.0-30.0-0.0","87843","2A","conjoined","woman","","null","W1 and W3 are dancing with each other","dance1","sentence","","","",""
"3581.1997875659144","","","survey-likert-extra-labels","77","281736","0.0-30.0-1.0-0.0","87843","2A","conjoined","woman","","","W1 and W3 are dancing with each other","dance1","rating_causation","{""Q0"":3}","[0]","W3 asked W1 to dance","W1 asked W3 to dance"
"2749.3999215512303","","","survey-likert-extra-labels","78","284490","0.0-30.0-2.0","87843","2A","conjoined","woman","","","W1 and W3 are dancing with each other","dance1","rating_volition","{""Q0"":3}","[0]","W3 wanted to dance with W1","W1 wanted to dance with W3"
"null","Luke and Fred are kissing each other","","html-keyboard-response","79","286497","0.0-31.0-0.0","87843","2A","conjoined","woman","","null","M1 and M3 are kissing each other","kiss2","sentence","","","",""
"2382.7000948293716","","","survey-likert-extra-labels","80","288883","0.0-31.0-1.0-0.0","87843","2A","conjoined","woman","","","M1 and M3 are kissing each other","kiss2","rating_causation","{""Q0"":3}","[0]","M3 asked to kiss M1","M1 asked to kiss M3"
"2731.0000235962216","","","survey-likert-extra-labels","81","291619","0.0-31.0-2.0","87843","2A","conjoined","woman","","","M1 and M3 are kissing each other","kiss2","rating_volition","{""Q0"":3}","[0]","M3 wanted to kiss M1","M1 wanted to kiss M3"
"null","Kate and Ruth are arguing with each other","","html-keyboard-response","82","293638","0.0-32.0-0.0","87843","2A","conjoined","woman","","null","W3 and W1 are arguing with each other","argue1","sentence","","","",""
"3611.5998866014997","","","survey-likert-extra-labels","83","297254","0.0-32.0-2.0","87843","2A","conjoined","woman","","","W3 and W1 are arguing with each other","argue1","rating_volition","{""Q0"":3}","[0]","W3 wanted to argue with W1","W1 wanted to argue with W3"
"2505.0001692770165","","","survey-likert-extra-labels","84","299766","0.0-32.0-3.0-0.0","87843","2A","conjoined","woman","","","W3 and W1 are arguing with each other","argue1","rating_causation","{""Q0"":3}","[0]","W3 started an argument with W1","W1 started an argument with W3"
"null","Kate and Luke are marrying each other","","html-keyboard-response","85","301769","0.0-33.0-0.0","87843","2A","conjoined","woman","","null","W3 and M1 are marrying each other","marry4","sentence","","","",""
"2480.100034163159","","","survey-likert-extra-labels","86","304255","0.0-33.0-2.0","87843","2A","conjoined","woman","","","W3 and M1 are marrying each other","marry4","rating_volition","{""Q0"":3}","[0]","M1 wanted to marry W3","W3 wanted to marry M1"
"5109.299942103855","","","survey-likert-extra-labels","87","309369","0.0-33.0-3.0-0.0","87843","2A","conjoined","woman","","","W3 and M1 are marrying each other","marry4","rating_causation","{""Q0"":3}","[0]","M1 asked to marry W3","W3 asked to marry M1"
"null","Jane and Beth are marrying each other","","html-keyboard-response","88","311381","0.0-34.0-0.0","87843","2A","conjoined","woman","","null","W2 and W4 are marrying each other","marry1","sentence","","","",""
"1927.600052116788","","","survey-likert-extra-labels","89","313315","0.0-34.0-2.0","87843","2A","conjoined","woman","","","W2 and W4 are marrying each other","marry1","rating_volition","{""Q0"":3}","[0]","W4 wanted to marry W2","W2 wanted to marry W4"
"3893.000173380715","","","survey-likert-extra-labels","90","317215","0.0-34.0-3.0-0.0","87843","2A","conjoined","woman","","","W2 and W4 are marrying each other","marry1","rating_causation","{""Q0"":3}","[0]","W4 asked to marry W2","W2 asked to marry W4"
"null","Mike and Dave are flirting with each other","","html-keyboard-response","91","319230","0.0-35.0-0.0","87843","2A","conjoined","woman","","null","M2 and M4 are flirting with each other","flirt2","sentence","","","",""
"1780.5998972026864","","","survey-likert-extra-labels","92","321016","0.0-35.0-1.0-0.0","87843","2A","conjoined","woman","","","M2 and M4 are flirting with each other","flirt2","rating_causation","{""Q0"":3}","[0]","M4 started flirting with M2 first","M2 started flirting with M4 first"
"2136.300138054823","","","survey-likert-extra-labels","93","323157","0.0-35.0-2.0","87843","2A","conjoined","woman","","","M2 and M4 are flirting with each other","flirt2","rating_volition","{""Q0"":3}","[0]","M4 wanted to flirt with M2","M2 wanted to flirt with M4"
"null","Mike and Beth are dancing with each other","","html-keyboard-response","94","325161","0.0-36.0-0.0","87843","2A","conjoined","woman","","null","M2 and W4 are dancing with each other","dance4","sentence","","","",""
"1705.899833834963","","","survey-likert-extra-labels","95","326872","0.0-36.0-2.0","87843","2A","conjoined","woman","","","M2 and W4 are dancing with each other","dance4","rating_volition","{""Q0"":3}","[0]","W4 wanted to dance with M2","M2 wanted to dance with W4"
"2979.5998975446564","","","survey-likert-extra-labels","96","329857","0.0-36.0-3.0-0.0","87843","2A","conjoined","woman","","","M2 and W4 are dancing with each other","dance4","rating_causation","{""Q0"":3}","[0]","W4 asked M2 to dance","M2 asked W4 to dance"
"null","Mike and Dave are touching each other","","html-keyboard-response","97","331881","0.0-37.0-0.0","87843","2A","conjoined","woman","","null","M2 and M4 are touching each other","touch2","sentence","","","",""
"2260.6999313658452","","","survey-likert-extra-labels","98","334147","0.0-37.0-2.0","87843","2A","conjoined","woman","","","M2 and M4 are touching each other","touch2","rating_volition","{""Q0"":3}","[0]","M4 wanted to touch M2","M2 wanted to touch M4"
"4081.199958552781","","","survey-likert-extra-labels","99","338234","0.0-37.0-3.0-0.0","87843","2A","conjoined","woman","","","M2 and M4 are touching each other","touch2","rating_causation","{""Q0"":3}","[0]","M4 asked to touch M2","M2 asked to touch M4"
"null","Fred and Luke are arguing with each other","","html-keyboard-response","100","340259","0.0-38.0-0.0","87843","2A","conjoined","woman","","null","M3 and M1 are arguing with each other","argue2","sentence","","","",""
"11362.799958005664","","","survey-likert-extra-labels","101","351626","0.0-38.0-1.0-0.0","87843","2A","conjoined","woman","","","M3 and M1 are arguing with each other","argue2","rating_causation","{""Q0"":3}","[0]","M3 started an argument with M1","M1 started an argument with M3"
"2603.5997525477432","","","survey-likert-extra-labels","102","354235","0.0-38.0-2.0","87843","2A","conjoined","woman","","","M3 and M1 are arguing with each other","argue2","rating_volition","{""Q0"":3}","[0]","M3 wanted to argue with M1","M1 wanted to argue with M3"
"null","Fred and Ruth are flirting with each other","","html-keyboard-response","103","356254","0.0-39.0-0.0","87843","2A","conjoined","woman","","null","M3 and W1 are flirting with each other","flirt4","sentence","","","",""
"2430.5996749197365","","","survey-likert-extra-labels","104","358688","0.0-39.0-1.0-0.0","87843","2A","conjoined","woman","","","M3 and W1 are flirting with each other","flirt4","rating_causation","{""Q0"":3}","[0]","W1 started flirting with M3 first","M3 started flirting with W1 first"
"2506.399867861357","","","survey-likert-extra-labels","105","361200","0.0-39.0-2.0","87843","2A","conjoined","woman","","","M3 and W1 are flirting with each other","flirt4","rating_volition","{""Q0"":3}","[0]","W1 wanted to flirt with M3","M3 wanted to flirt with W1"
"null","Kate and Luke are touching each other","","html-keyboard-response","106","363218","0.0-40.0-0.0","87843","2A","conjoined","woman","","null","W3 and M1 are touching each other","touch3","sentence","","","",""
"10087.50014106417","","","survey-likert-extra-labels","107","373310","0.0-40.0-1.0-0.0","87843","2A","conjoined","woman","","","W3 and M1 are touching each other","touch3","rating_causation","{""Q0"":3}","[0]","M1 asked to touch W3","W3 asked to touch M1"
"2283.2999509951332","","","survey-likert-extra-labels","108","375599","0.0-40.0-2.0","87843","2A","conjoined","woman","","","W3 and M1 are touching each other","touch3","rating_volition","{""Q0"":3}","[0]","M1 wanted to touch W3","W3 wanted to touch M1"
"null","Jane is teaching Dave","","html-keyboard-response","109","377619","0.0-41.0-0.0","87843","2A","conjoined","woman","","null","W2 is teaching M4","teach","sentence","","","",""
"17332.79996826488","","","survey-likert-extra-labels","110","394957","0.0-41.0-2.0","87843","2A","conjoined","woman","","","W2 is teaching M4","teach","rating_volition","{""Q0"":0}","[0]","W2 is educating M4","M4 is educating W2"
"3474.999837562442","","","survey-likert-extra-labels","111","398439","0.0-41.0-3.0-0.0","87843","2A","conjoined","woman","","","W2 is teaching M4","teach","rating_causation","{""Q0"":6}","[0]","W2 is learning from M4","M4 is learning from W2"
"null","Fred and Ruth are marrying each other","","html-keyboard-response","112","400458","0.0-42.0-0.0","87843","2A","conjoined","woman","","null","M3 and W1 are marrying each other","marry3","sentence","","","",""
"2808.69988075376","","","survey-likert-extra-labels","113","403270","0.0-42.0-1.0-0.0","87843","2A","conjoined","woman","","","M3 and W1 are marrying each other","marry3","rating_causation","{""Q0"":3}","[0]","W1 asked to marry M3","M3 asked to marry W1"
"2604.3001148005714","","","survey-likert-extra-labels","114","405881","0.0-42.0-2.0","87843","2A","conjoined","woman","","","M3 and W1 are marrying each other","marry3","rating_volition","{""Q0"":3}","[0]","W1 wanted to marry M3","M3 wanted to marry W1"
"null","Dave and Jane are shouting at each other","","html-keyboard-response","115","407890","0.0-43.0-0.0","87843","2A","conjoined","woman","","null","M4 and W2 are shouting at each other","shout4","sentence","","","",""
"5068.699791840569","","","survey-likert-extra-labels","116","412965","0.0-43.0-1.0-0.0","87843","2A","conjoined","woman","","","M4 and W2 are shouting at each other","shout4","rating_causation","{""Q0"":3}","[0]","M4 shouted at W2 first","W2 shouted at M4 first"
"2386.5001072087907","","","survey-likert-extra-labels","117","415358","0.0-43.0-2.0","87843","2A","conjoined","woman","","","M4 and W2 are shouting at each other","shout4","rating_volition","{""Q0"":3}","[0]","M4 wanted to shout at W2","W2 wanted to shout at M4"
"null","Kate and Luke are flirting with each other","","html-keyboard-response","118","417361","0.0-44.0-0.0","87843","2A","conjoined","woman","","null","W3 and M1 are flirting with each other","flirt3","sentence","","","",""
"1826.3997584297321","","","survey-likert-extra-labels","119","419194","0.0-44.0-2.0","87843","2A","conjoined","woman","","","W3 and M1 are flirting with each other","flirt3","rating_volition","{""Q0"":3}","[0]","M1 wanted to flirt with W3","W3 wanted to flirt with M1"
"3076.199960262631","","","survey-likert-extra-labels","120","422276","0.0-44.0-3.0-0.0","87843","2A","conjoined","woman","","","W3 and M1 are flirting with each other","flirt3","rating_causation","{""Q0"":3}","[0]","M1 started flirting with W3 first","W3 started flirting with M1 first"
"null","Kate and Ruth are shouting at each other","","html-keyboard-response","121","424290","0.0-45.0-0.0","87843","2A","conjoined","woman","","null","W3 and W1 are shouting at each other","shout1","sentence","","","",""
"3658.1999664181494","","","survey-likert-extra-labels","122","427952","0.0-45.0-1.0-0.0","87843","2A","conjoined","woman","","","W3 and W1 are shouting at each other","shout1","rating_causation","{""Q0"":3}","[0]","W3 shouted at W1 first","W1 shouted at W3 first"
"4639.100048184104","","","survey-likert-extra-labels","123","432598","0.0-45.0-2.0","87843","2A","conjoined","woman","","","W3 and W1 are shouting at each other","shout1","rating_volition","{""Q0"":3}","[0]","W3 wanted to shout at W1","W1 wanted to shout at W3"
"null","Mike and Dave are marrying each other","","html-keyboard-response","124","434607","0.0-46.0-0.0","87843","2A","conjoined","woman","","null","M2 and M4 are marrying each other","marry2","sentence","","","",""
"6664.899916250608","","","survey-likert-extra-labels","125","441276","0.0-46.0-1.0-0.0","87843","2A","conjoined","woman","","","M2 and M4 are marrying each other","marry2","rating_causation","{""Q0"":3}","[0]","M4 asked to marry M2","M2 asked to marry M4"
"6502.200088160811","","","survey-likert-extra-labels","126","447787","0.0-46.0-2.0","87843","2A","conjoined","woman","","","M2 and M4 are marrying each other","marry2","rating_volition","{""Q0"":3}","[0]","M4 wanted to marry M2","M2 wanted to marry M4"
"null","Luke and Kate are fighting each other","","html-keyboard-response","127","449799","0.0-47.0-0.0","87843","2A","conjoined","woman","","null","M1 and W3 are fighting each other","fight3","sentence","","","",""
"9350.300133267126","","","survey-likert-extra-labels","128","459156","0.0-47.0-1.0-0.0","87843","2A","conjoined","woman","","","M1 and W3 are fighting each other","fight3","rating_causation","{""Q0"":3}","[0]","M1 started the fight with W3","W3 started the fight with M1"
"10169.100208911812","","","survey-likert-extra-labels","129","469330","0.0-47.0-2.0","87843","2A","conjoined","woman","","","M1 and W3 are fighting each other","fight3","rating_volition","{""Q0"":3}","[0]","M1 wanted to fight W3","W3 wanted to fight M1"
"null","Ruth and Kate are kissing each other","","html-keyboard-response","130","471341","0.0-48.0-0.0","87843","2A","conjoined","woman","","null","W1 and W3 are kissing each other","kiss1","sentence","","","",""
"12934.099947301845","","","survey-likert-extra-labels","131","484283","0.0-48.0-2.0","87843","2A","conjoined","woman","","","W1 and W3 are kissing each other","kiss1","rating_volition","{""Q0"":3}","[0]","W3 wanted to kiss W1","W1 wanted to kiss W3"
"4017.600021339138","","","survey-likert-extra-labels","132","488306","0.0-48.0-3.0-0.0","87843","2A","conjoined","woman","","","W1 and W3 are kissing each other","kiss1","rating_causation","{""Q0"":3}","[0]","W3 asked to kiss W1","W1 asked to kiss W3"
"null","Jane and Dave are dancing with each other","","html-keyboard-response","133","490311","0.0-49.0-0.0","87843","2A","conjoined","woman","","null","W2 and M4 are dancing with each other","dance3","sentence","","","",""
"2936.099809828389","","","survey-likert-extra-labels","134","493254","0.0-49.0-2.0","87843","2A","conjoined","woman","","","W2 and M4 are dancing with each other","dance3","rating_volition","{""Q0"":3}","[0]","M4 wanted to dance with W2","W2 wanted to dance with M4"
"3643.6000808425597","","","survey-likert-extra-labels","135","496903","0.0-49.0-3.0-0.0","87843","2A","conjoined","woman","","","W2 and M4 are dancing with each other","dance3","rating_causation","{""Q0"":3}","[0]","M4 asked W2 to dance","W2 asked M4 to dance"
"null","Jane and Beth are flirting with each other","","html-keyboard-response","136","498912","0.0-50.0-0.0","87843","2A","conjoined","woman","","null","W2 and W4 are flirting with each other","flirt1","sentence","","","",""
"2027.29976496147","","","survey-likert-extra-labels","137","500947","0.0-50.0-1.0-0.0","87843","2A","conjoined","woman","","","W2 and W4 are flirting with each other","flirt1","rating_causation","{""Q0"":3}","[0]","W4 started flirting with W2 first","W2 started flirting with W4 first"
"2847.5002231378457","","","survey-likert-extra-labels","138","503799","0.0-50.0-2.0","87843","2A","conjoined","woman","","","W2 and W4 are flirting with each other","flirt1","rating_volition","{""Q0"":3}","[0]","W4 wanted to flirt with W2","W2 wanted to flirt with W4"
"null","Beth and Mike are shouting at each other","","html-keyboard-response","139","505817","0.0-51.0-0.0","87843","2A","conjoined","woman","","null","W4 and M2 are shouting at each other","shout3","sentence","","","",""
"2659.899917960516","","","survey-likert-extra-labels","140","508483","0.0-51.0-2.0","87843","2A","conjoined","woman","","","W4 and M2 are shouting at each other","shout3","rating_volition","{""Q0"":3}","[0]","W4 wanted to shout at M2","M2 wanted to shout at W4"
"2822.2998350660782","","","survey-likert-extra-labels","141","511315","0.0-51.0-3.0-0.0","87843","2A","conjoined","woman","","","W4 and M2 are shouting at each other","shout3","rating_causation","{""Q0"":3}","[0]","W4 shouted at M2 first","M2 shouted at W4 first"
"null","Jane is carrying Beth","","html-keyboard-response","142","513324","0.0-52.0-0.0","87843","2A","conjoined","woman","","null","W2 is carrying W4","carry","sentence","","","",""
"3677.99990493129","","","survey-likert-extra-labels","143","517006","0.0-52.0-2.0","87843","2A","conjoined","woman","","","W2 is carrying W4","carry","rating_volition","{""Q0"":0}","[0]","W2 is transporting W4","W4 is transporting W2"
"3690.3998733329354","","","survey-likert-extra-labels","144","520704","0.0-52.0-3.0-0.0","87843","2A","conjoined","woman","","","W2 is carrying W4","carry","rating_causation","{""Q0"":6}","[0]","W2 is being moved by W4","W4 is being moved by W2"
"null","Beth and Mike are arguing with each other","","html-keyboard-response","145","522723","0.0-53.0-0.0","87843","2A","conjoined","woman","","null","W4 and M2 are arguing with each other","argue4","sentence","","","",""
"1496.500069591566","","","survey-likert-extra-labels","146","524225","0.0-53.0-2.0","87843","2A","conjoined","woman","","","W4 and M2 are arguing with each other","argue4","rating_volition","{""Q0"":3}","[0]","W4 wanted to argue with M2","M2 wanted to argue with W4"
"2206.2997721428983","","","survey-likert-extra-labels","147","526439","0.0-53.0-3.0-0.0","87843","2A","conjoined","woman","","","W4 and M2 are arguing with each other","argue4","rating_causation","{""Q0"":3}","[0]","W4 started an argument with M2","M2 started an argument with W4"
"null","Mike is posing for Dave","","html-keyboard-response","148","528444","0.0-54.0-0.0","87843","2A","conjoined","woman","","null","M2 is posing for M4","pose","sentence","","","",""
"5199.100198652479","","","survey-likert-extra-labels","149","533649","0.0-54.0-2.0","87843","2A","conjoined","woman","","","M2 is posing for M4","pose","rating_volition","{""Q0"":0}","[0]","M2 is modelling for M4","M4 is modelling for M2"
"2640.900198036921","","","survey-likert-extra-labels","150","536298","0.0-54.0-3.0-0.0","87843","2A","conjoined","woman","","","M2 is posing for M4","pose","rating_causation","{""Q0"":6}","[0]","M2 is photographing M4","M4 is photographing M2"
"1372.7000982490135","<p>Thank you for completing that task.</p><p>The final part of this session is a short questionnaire.</p><p>Press Continue.</p>","0","html-button-response","151","537678","0.0-55.0","87843","2A","conjoined","woman","","","","","","","","",""
"31035.799864646746","","","survey-text","152","569744","0.0-56.0","87843","2A","conjoined","woman","","","","","demographics","{""Q0"":""34"",""Q1"":""English"",""Q2"":""English"",""Q3"":""United Kingdom"",""Q4"":""British"",""Q5"":""White British"",""Q6"":""Female""}","","",""
"1231.29976359359","<p>Have you lived in the UK for the last 5 years or more?</p>","0","html-button-response","153","570988","0.0-57.0","87843","2A","conjoined","woman","","","","","fiveyears","","","",""
"2204.200053279521","","","survey-text","154","574215","0.0-58.0","87843","2A","conjoined","woman","","","","","worker_id","{""Q0"":""5d5133513e142a001c0cd860""}","","",""
"8096.899973702151","","","external-html","155","582829","0.0-59.0","87843","2A","conjoined","woman","debrief.html","","","","","","","",""
