"rt","stimulus","button_pressed","trial_type","trial_index","time_elapsed","internal_node_id","subject","list","condition","ppt_gender","url","key_press","sentence_type","verb","test_part","responses","question_order","left_part","right_part"
"2583","Welcome to the experiment. Press Continue to begin.","0","html-button-response","0","2586","0.0-0.0","91987","2B","conjoined","man","","","","","","","","",""
"8112","","","external-html","1","11731","0.0-1.0","91987","2B","conjoined","man","consent.html","","","","","","","",""
"10777","<p>Welcome.</p><p>In this experiment we will ask you to imagine some situations.</p><p>Each trial starts with a description of an event.</p><p>Then you will see alternative descriptions of that event, and you will rate on a scale how best they match the original description.</p><p>You will give your answer by clicking a button on a rating scale.</p><p>To do this task, you will have to use your imagination to visualise these events.</p><br><p>Ready?</p>","0","html-button-response","2","22509","0.0-2.0","91987","2B","conjoined","man","","","","","","","","",""
"2991","<p>Before the experiment starts, you will watch an example trial. Press 'Continue'.</p>","0","html-button-response","3","26503","0.0-3.0","91987","2B","conjoined","man","","","","","","","","",""
"null","The police officer is arresting the robber","","html-keyboard-response","4","29506","0.0-4.0","91987","2B","conjoined","man","","null","","","","","","",""
"13657","<img src='img/Example-trial.jpg' style='height:550px;''></img>","0","html-button-response","5","43164","0.0-5.0","91987","2B","conjoined","man","","","","","","","","",""
"1584","<p>Ready to start the experiment?</p><br><p><strong>Remember to give an answer by clicking a button on the rating scale.</strong></p><p>Press 'Continue' to begin.</p>","0","html-button-response","6","45752","0.0-6.0","91987","2B","conjoined","man","","","","","","","","",""
"null","Beth and Fred are flirting with each other","","html-keyboard-response","7","48756","0.0-7.0-0.0","91987","2B","conjoined","man","","null","W3 and M1 are flirting with each other","flirt3","sentence","","","",""
"6806.999999999993","","","survey-likert-extra-labels","8","55565","0.0-7.0-1.0-0.0","91987","2B","conjoined","man","","","W3 and M1 are flirting with each other","flirt3","rating_causation","{""Q0"":3}","[0]","M1 started flirting with W3 first","W3 started flirting with M1 first"
"4577","","","survey-likert-extra-labels","9","60143","0.0-7.0-2.0","91987","2B","conjoined","man","","","W3 and M1 are flirting with each other","flirt3","rating_volition","{""Q0"":3}","[0]","M1 wanted to flirt with W3","W3 wanted to flirt with M1"
"null","Kate and Beth are talking to each other","","html-keyboard-response","10","62146","0.0-8.0-0.0","91987","2B","conjoined","man","","null","W1 and W3 are talking to each other","talk1","sentence","","","",""
"3416.9999999999927","","","survey-likert-extra-labels","11","65564","0.0-8.0-2.0","91987","2B","conjoined","man","","","W1 and W3 are talking to each other","talk1","rating_volition","{""Q0"":3}","[0]","W3 wanted to talk to W1","W1 wanted to talk to W3"
"3915","","","survey-likert-extra-labels","12","69480","0.0-8.0-3.0-0.0","91987","2B","conjoined","man","","","W1 and W3 are talking to each other","talk1","rating_causation","{""Q0"":3}","[0]","W3 started a conversation with W1","W1 started a conversation with W3"
"null","Dave and Fred are arguing with each other","","html-keyboard-response","13","71483","0.0-9.0-0.0","91987","2B","conjoined","man","","null","M3 and M1 are arguing with each other","argue2","sentence","","","",""
"3048","","","survey-likert-extra-labels","14","74531","0.0-9.0-1.0-0.0","91987","2B","conjoined","man","","","M3 and M1 are arguing with each other","argue2","rating_causation","{""Q0"":3}","[0]","M3 started an argument with M1","M1 started an argument with M3"
"3181.9999999999854","","","survey-likert-extra-labels","15","77714","0.0-9.0-2.0","91987","2B","conjoined","man","","","M3 and M1 are arguing with each other","argue2","rating_volition","{""Q0"":3}","[0]","M3 wanted to argue with M1","M1 wanted to argue with M3"
"null","Luke and Mike are marrying each other","","html-keyboard-response","16","79716","0.0-10.0-0.0","91987","2B","conjoined","man","","null","M2 and M4 are marrying each other","marry2","sentence","","","",""
"6547","","","survey-likert-extra-labels","17","86265","0.0-10.0-1.0-0.0","91987","2B","conjoined","man","","","M2 and M4 are marrying each other","marry2","rating_causation","{""Q0"":3}","[0]","M4 asked to marry M2","M2 asked to marry M4"
"3823","","","survey-likert-extra-labels","18","90089","0.0-10.0-2.0","91987","2B","conjoined","man","","","M2 and M4 are marrying each other","marry2","rating_volition","{""Q0"":3}","[0]","M4 wanted to marry M2","M2 wanted to marry M4"
"null","Luke and Jane are talking to each other","","html-keyboard-response","19","92091","0.0-11.0-0.0","91987","2B","conjoined","man","","null","M2 and W4 are talking to each other","talk4","sentence","","","",""
"4859","","","survey-likert-extra-labels","20","96952","0.0-11.0-1.0-0.0","91987","2B","conjoined","man","","","M2 and W4 are talking to each other","talk4","rating_causation","{""Q0"":3}","[0]","W4 started a conversation with M2","M2 started a conversation with W4"
"2913","","","survey-likert-extra-labels","21","99866","0.0-11.0-2.0","91987","2B","conjoined","man","","","M2 and W4 are talking to each other","talk4","rating_volition","{""Q0"":3}","[0]","W4 wanted to talk to M2","M2 wanted to talk to W4"
"null","Dave and Kate are marrying each other","","html-keyboard-response","22","101869","0.0-12.0-0.0","91987","2B","conjoined","man","","null","M3 and W1 are marrying each other","marry3","sentence","","","",""
"3755","","","survey-likert-extra-labels","23","105625","0.0-12.0-2.0","91987","2B","conjoined","man","","","M3 and W1 are marrying each other","marry3","rating_volition","{""Q0"":3}","[0]","W1 wanted to marry M3","M3 wanted to marry W1"
"2250","","","survey-likert-extra-labels","24","107877","0.0-12.0-3.0-0.0","91987","2B","conjoined","man","","","M3 and W1 are marrying each other","marry3","rating_causation","{""Q0"":3}","[0]","W1 asked to marry M3","M3 asked to marry W1"
"null","Luke is posing for Mike","","html-keyboard-response","25","109880","0.0-13.0-0.0","91987","2B","conjoined","man","","null","M2 is posing for M4","pose","sentence","","","",""
"10933.000000000015","","","survey-likert-extra-labels","26","120814","0.0-13.0-2.0","91987","2B","conjoined","man","","","M2 is posing for M4","pose","rating_volition","{""Q0"":0}","[0]","M2 is modelling for M4","M4 is modelling for M2"
"5918","","","survey-likert-extra-labels","27","126733","0.0-13.0-3.0-0.0","91987","2B","conjoined","man","","","M2 is posing for M4","pose","rating_causation","{""Q0"":6}","[0]","M2 is photographing M4","M4 is photographing M2"
"null","Kate and Dave are playing with each other","","html-keyboard-response","28","128736","0.0-14.0-0.0","91987","2B","conjoined","man","","null","W1 and M3 are playing with each other","play3","sentence","","","",""
"2336.9999999999854","","","survey-likert-extra-labels","29","131073","0.0-14.0-2.0","91987","2B","conjoined","man","","","W1 and M3 are playing with each other","play3","rating_volition","{""Q0"":3}","[0]","W1 wanted to play with M3","M3 wanted to play with W1"
"2147","","","survey-likert-extra-labels","30","133222","0.0-14.0-3.0-0.0","91987","2B","conjoined","man","","","W1 and M3 are playing with each other","play3","rating_causation","{""Q0"":3}","[0]","W1 asked to play with M3","M3 asked to play with W1"
"null","Jane and Luke are arguing with each other","","html-keyboard-response","31","135224","0.0-15.0-0.0","91987","2B","conjoined","man","","null","W4 and M2 are arguing with each other","argue4","sentence","","","",""
"2564","","","survey-likert-extra-labels","32","137790","0.0-15.0-1.0-0.0","91987","2B","conjoined","man","","","W4 and M2 are arguing with each other","argue4","rating_causation","{""Q0"":3}","[0]","W4 started an argument with M2","M2 started an argument with W4"
"3587","","","survey-likert-extra-labels","33","141379","0.0-15.0-2.0","91987","2B","conjoined","man","","","W4 and M2 are arguing with each other","argue4","rating_volition","{""Q0"":3}","[0]","W4 wanted to argue with M2","M2 wanted to argue with W4"
"null","Fred and Dave are dancing with each other","","html-keyboard-response","34","143380","0.0-16.0-0.0","91987","2B","conjoined","man","","null","M1 and M3 are dancing with each other","dance2","sentence","","","",""
"4376","","","survey-likert-extra-labels","35","147757","0.0-16.0-2.0","91987","2B","conjoined","man","","","M1 and M3 are dancing with each other","dance2","rating_volition","{""Q0"":3}","[0]","M3 wanted to dance with M1","M1 wanted to dance with M3"
"3026.000000000029","","","survey-likert-extra-labels","36","150784","0.0-16.0-3.0-0.0","91987","2B","conjoined","man","","","M1 and M3 are dancing with each other","dance2","rating_causation","{""Q0"":3}","[0]","M3 asked M1 to dance","M1 asked M3 to dance"
"null","Jane and Ruth are fighting each other","","html-keyboard-response","37","152786","0.0-17.0-0.0","91987","2B","conjoined","man","","null","W4 and W2 are fighting each other","fight1","sentence","","","",""
"2778","","","survey-likert-extra-labels","38","155566","0.0-17.0-2.0","91987","2B","conjoined","man","","","W4 and W2 are fighting each other","fight1","rating_volition","{""Q0"":3}","[0]","W4 wanted to fight W2","W2 wanted to fight W4"
"3745","","","survey-likert-extra-labels","39","159312","0.0-17.0-3.0-0.0","91987","2B","conjoined","man","","","W4 and W2 are fighting each other","fight1","rating_causation","{""Q0"":3}","[0]","W4 started the fight with W2","W2 started the fight with W4"
"null","Dave and Fred are shouting at each other","","html-keyboard-response","40","161315","0.0-18.0-0.0","91987","2B","conjoined","man","","null","M3 and M1 are shouting at each other","shout2","sentence","","","",""
"2428","","","survey-likert-extra-labels","41","163744","0.0-18.0-1.0-0.0","91987","2B","conjoined","man","","","M3 and M1 are shouting at each other","shout2","rating_causation","{""Q0"":3}","[0]","M3 shouted at M1 first","M1 shouted at M3 first"
"2653","","","survey-likert-extra-labels","42","166399","0.0-18.0-2.0","91987","2B","conjoined","man","","","M3 and M1 are shouting at each other","shout2","rating_volition","{""Q0"":3}","[0]","M3 wanted to shout at M1","M1 wanted to shout at M3"
"null","Ruth and Jane are touching each other","","html-keyboard-response","43","168402","0.0-19.0-0.0","91987","2B","conjoined","man","","null","W2 and W4 are touching each other","touch1","sentence","","","",""
"4117","","","survey-likert-extra-labels","44","172520","0.0-19.0-1.0-0.0","91987","2B","conjoined","man","","","W2 and W4 are touching each other","touch1","rating_causation","{""Q0"":3}","[0]","W4 asked to touch W2","W2 asked to touch W4"
"3192","","","survey-likert-extra-labels","45","175713","0.0-19.0-2.0","91987","2B","conjoined","man","","","W2 and W4 are touching each other","touch1","rating_volition","{""Q0"":3}","[0]","W4 wanted to touch W2","W2 wanted to touch W4"
"null","Ruth and Mike are dancing with each other","","html-keyboard-response","46","177716","0.0-20.0-0.0","91987","2B","conjoined","man","","null","W2 and M4 are dancing with each other","dance3","sentence","","","",""
"24346","","","survey-likert-extra-labels","47","202061","0.0-20.0-1.0-0.0","91987","2B","conjoined","man","","","W2 and M4 are dancing with each other","dance3","rating_causation","{""Q0"":3}","[0]","M4 asked W2 to dance","W2 asked M4 to dance"
"1585","","","survey-likert-extra-labels","48","203647","0.0-20.0-2.0","91987","2B","conjoined","man","","","W2 and M4 are dancing with each other","dance3","rating_volition","{""Q0"":3}","[0]","M4 wanted to dance with W2","W2 wanted to dance with M4"
"null","Kate and Beth are dancing with each other","","html-keyboard-response","49","205650","0.0-21.0-0.0","91987","2B","conjoined","man","","null","W1 and W3 are dancing with each other","dance1","sentence","","","",""
"2272","","","survey-likert-extra-labels","50","207924","0.0-21.0-1.0-0.0","91987","2B","conjoined","man","","","W1 and W3 are dancing with each other","dance1","rating_causation","{""Q0"":3}","[0]","W3 asked W1 to dance","W1 asked W3 to dance"
"1382","","","survey-likert-extra-labels","51","209308","0.0-21.0-2.0","91987","2B","conjoined","man","","","W1 and W3 are dancing with each other","dance1","rating_volition","{""Q0"":3}","[0]","W3 wanted to dance with W1","W1 wanted to dance with W3"
"null","Luke and Jane are dancing with each other","","html-keyboard-response","52","211310","0.0-22.0-0.0","91987","2B","conjoined","man","","null","M2 and W4 are dancing with each other","dance4","sentence","","","",""
"4035.999999999971","","","survey-likert-extra-labels","53","215348","0.0-22.0-1.0-0.0","91987","2B","conjoined","man","","","M2 and W4 are dancing with each other","dance4","rating_causation","{""Q0"":3}","[0]","W4 asked M2 to dance","M2 asked W4 to dance"
"1349","","","survey-likert-extra-labels","54","216698","0.0-22.0-2.0","91987","2B","conjoined","man","","","M2 and W4 are dancing with each other","dance4","rating_volition","{""Q0"":3}","[0]","W4 wanted to dance with M2","M2 wanted to dance with W4"
"null","Beth and Fred are marrying each other","","html-keyboard-response","55","218700","0.0-23.0-0.0","91987","2B","conjoined","man","","null","W3 and M1 are marrying each other","marry4","sentence","","","",""
"6502","","","survey-likert-extra-labels","56","225204","0.0-23.0-1.0-0.0","91987","2B","conjoined","man","","","W3 and M1 are marrying each other","marry4","rating_causation","{""Q0"":3}","[0]","M1 asked to marry W3","W3 asked to marry M1"
"1461","","","survey-likert-extra-labels","57","226665","0.0-23.0-2.0","91987","2B","conjoined","man","","","W3 and M1 are marrying each other","marry4","rating_volition","{""Q0"":3}","[0]","M1 wanted to marry W3","W3 wanted to marry M1"
"null","Kate is chasing Beth","","html-keyboard-response","58","228668","0.0-24.0-0.0","91987","2B","conjoined","man","","null","W1 is chasing W3","chase","sentence","","","",""
"195920","","","survey-likert-extra-labels","59","424580","0.0-24.0-1.0-0.0","91987","2B","conjoined","man","","","W1 is chasing W3","chase","rating_causation","{""Q0"":6}","[0]","W1 is running away from W3","W3 is running away from W1"
"8242","","","survey-likert-extra-labels","60","432824","0.0-24.0-2.0","91987","2B","conjoined","man","","","W1 is chasing W3","chase","rating_volition","{""Q0"":0}","[0]","W1 is behind W3","W3 is behind W1"
"null","Fred and Beth are playing with each other","","html-keyboard-response","61","434827","0.0-25.0-0.0","91987","2B","conjoined","man","","null","M1 and W3 are playing with each other","play4","sentence","","","",""
"1954.9999999999418","","","survey-likert-extra-labels","62","436783","0.0-25.0-1.0-0.0","91987","2B","conjoined","man","","","M1 and W3 are playing with each other","play4","rating_causation","{""Q0"":3}","[0]","M1 asked to play with W3","W3 asked to play with M1"
"1866","","","survey-likert-extra-labels","63","438651","0.0-25.0-2.0","91987","2B","conjoined","man","","","M1 and W3 are playing with each other","play4","rating_volition","{""Q0"":3}","[0]","M1 wanted to play with W3","W3 wanted to play with M1"
"null","Fred and Dave are kissing each other","","html-keyboard-response","64","440654","0.0-26.0-0.0","91987","2B","conjoined","man","","null","M1 and M3 are kissing each other","kiss2","sentence","","","",""
"2090.999999999942","","","survey-likert-extra-labels","65","442747","0.0-26.0-1.0-0.0","91987","2B","conjoined","man","","","M1 and M3 are kissing each other","kiss2","rating_causation","{""Q0"":3}","[0]","M3 asked to kiss M1","M1 asked to kiss M3"
"5579.000000000058","","","survey-likert-extra-labels","66","448328","0.0-26.0-2.0","91987","2B","conjoined","man","","","M1 and M3 are kissing each other","kiss2","rating_volition","{""Q0"":3}","[0]","M3 wanted to kiss M1","M1 wanted to kiss M3"
"null","Beth and Fred are touching each other","","html-keyboard-response","67","450331","0.0-27.0-0.0","91987","2B","conjoined","man","","null","W3 and M1 are touching each other","touch3","sentence","","","",""
"1797","","","survey-likert-extra-labels","68","452128","0.0-27.0-2.0","91987","2B","conjoined","man","","","W3 and M1 are touching each other","touch3","rating_volition","{""Q0"":3}","[0]","M1 wanted to touch W3","W3 wanted to touch M1"
"11948.000000000058","","","survey-likert-extra-labels","69","464077","0.0-27.0-3.0-0.0","91987","2B","conjoined","man","","","W3 and M1 are touching each other","touch3","rating_causation","{""Q0"":3}","[0]","M1 asked to touch W3","W3 asked to touch M1"
"null","Mike and Luke are fighting each other","","html-keyboard-response","70","466079","0.0-28.0-0.0","91987","2B","conjoined","man","","null","M4 and M2 are fighting each other","fight2","sentence","","","",""
"1990","","","survey-likert-extra-labels","71","468070","0.0-28.0-2.0","91987","2B","conjoined","man","","","M4 and M2 are fighting each other","fight2","rating_volition","{""Q0"":3}","[0]","M4 wanted to fight M2","M2 wanted to fight M4"
"1573","","","survey-likert-extra-labels","72","469645","0.0-28.0-3.0-0.0","91987","2B","conjoined","man","","","M4 and M2 are fighting each other","fight2","rating_causation","{""Q0"":3}","[0]","M4 started the fight with M2","M2 started the fight with M4"
"null","Mike and Ruth are shouting at each other","","html-keyboard-response","73","471648","0.0-29.0-0.0","91987","2B","conjoined","man","","null","M4 and W2 are shouting at each other","shout4","sentence","","","",""
"1596.9999999999418","","","survey-likert-extra-labels","74","473246","0.0-29.0-1.0-0.0","91987","2B","conjoined","man","","","M4 and W2 are shouting at each other","shout4","rating_causation","{""Q0"":3}","[0]","M4 shouted at W2 first","W2 shouted at M4 first"
"2159","","","survey-likert-extra-labels","75","475408","0.0-29.0-2.0","91987","2B","conjoined","man","","","M4 and W2 are shouting at each other","shout4","rating_volition","{""Q0"":3}","[0]","M4 wanted to shout at W2","W2 wanted to shout at M4"
"null","Fred and Dave are talking to each other","","html-keyboard-response","76","477411","0.0-30.0-0.0","91987","2B","conjoined","man","","null","M1 and M3 are talking to each other","talk2","sentence","","","",""
"2043","","","survey-likert-extra-labels","77","479455","0.0-30.0-2.0","91987","2B","conjoined","man","","","M1 and M3 are talking to each other","talk2","rating_volition","{""Q0"":3}","[0]","M3 wanted to talk to M1","M1 wanted to talk to M3"
"1483","","","survey-likert-extra-labels","78","480940","0.0-30.0-3.0-0.0","91987","2B","conjoined","man","","","M1 and M3 are talking to each other","talk2","rating_causation","{""Q0"":3}","[0]","M3 started a conversation with M1","M1 started a conversation with M3"
"null","Ruth and Jane are marrying each other","","html-keyboard-response","79","482942","0.0-31.0-0.0","91987","2B","conjoined","man","","null","W2 and W4 are marrying each other","marry1","sentence","","","",""
"1597.0000000000582","","","survey-likert-extra-labels","80","484540","0.0-31.0-2.0","91987","2B","conjoined","man","","","W2 and W4 are marrying each other","marry1","rating_volition","{""Q0"":3}","[0]","W4 wanted to marry W2","W2 wanted to marry W4"
"1406","","","survey-likert-extra-labels","81","485947","0.0-31.0-3.0-0.0","91987","2B","conjoined","man","","","W2 and W4 are marrying each other","marry1","rating_causation","{""Q0"":3}","[0]","W4 asked to marry W2","W2 asked to marry W4"
"null","Kate and Dave are fighting each other","","html-keyboard-response","82","487949","0.0-32.0-0.0","91987","2B","conjoined","man","","null","W1 and M3 are fighting each other","fight4","sentence","","","",""
"1685.9999999999418","","","survey-likert-extra-labels","83","489637","0.0-32.0-2.0","91987","2B","conjoined","man","","","W1 and M3 are fighting each other","fight4","rating_volition","{""Q0"":3}","[0]","W1 wanted to fight M3","M3 wanted to fight W1"
"1482","","","survey-likert-extra-labels","84","491121","0.0-32.0-3.0-0.0","91987","2B","conjoined","man","","","W1 and M3 are fighting each other","fight4","rating_causation","{""Q0"":3}","[0]","W1 started the fight with M3","M3 started the fight with W1"
"null","Fred is driving Dave","","html-keyboard-response","85","493123","0.0-33.0-0.0","91987","2B","conjoined","man","","null","M1 is driving M3","drive","sentence","","","",""
"5209","","","survey-likert-extra-labels","86","498334","0.0-33.0-2.0","91987","2B","conjoined","man","","","M1 is driving M3","drive","rating_volition","{""Q0"":0}","[0]","M3 is M1's passenger","M1 is M3's passenger"
"7053","","","survey-likert-extra-labels","87","505388","0.0-33.0-3.0-0.0","91987","2B","conjoined","man","","","M1 is driving M3","drive","rating_causation","{""Q0"":6}","[0]","M3 is taking M1 somewhere","M1 is taking M3 somewhere"
"null","Fred and Beth are fighting each other","","html-keyboard-response","88","507390","0.0-34.0-0.0","91987","2B","conjoined","man","","null","M1 and W3 are fighting each other","fight3","sentence","","","",""
"1505.0000000000582","","","survey-likert-extra-labels","89","508896","0.0-34.0-1.0-0.0","91987","2B","conjoined","man","","","M1 and W3 are fighting each other","fight3","rating_causation","{""Q0"":3}","[0]","M1 started the fight with W3","W3 started the fight with M1"
"1439.0000000000582","","","survey-likert-extra-labels","90","510336","0.0-34.0-2.0","91987","2B","conjoined","man","","","M1 and W3 are fighting each other","fight3","rating_volition","{""Q0"":3}","[0]","M1 wanted to fight W3","W3 wanted to fight M1"
"null","Mike and Ruth are arguing with each other","","html-keyboard-response","91","512339","0.0-35.0-0.0","91987","2B","conjoined","man","","null","M4 and W2 are arguing with each other","argue3","sentence","","","",""
"1563","","","survey-likert-extra-labels","92","513903","0.0-35.0-1.0-0.0","91987","2B","conjoined","man","","","M4 and W2 are arguing with each other","argue3","rating_causation","{""Q0"":3}","[0]","M4 started an argument with W2","W2 started an argument with M4"
"1292.0000000000582","","","survey-likert-extra-labels","93","515197","0.0-35.0-2.0","91987","2B","conjoined","man","","","M4 and W2 are arguing with each other","argue3","rating_volition","{""Q0"":3}","[0]","M4 wanted to argue with W2","W2 wanted to argue with M4"
"null","Jane and Ruth are playing with each other","","html-keyboard-response","94","517199","0.0-36.0-0.0","91987","2B","conjoined","man","","null","W4 and W2 are playing with each other","play1","sentence","","","",""
"2553","","","survey-likert-extra-labels","95","519753","0.0-36.0-1.0-0.0","91987","2B","conjoined","man","","","W4 and W2 are playing with each other","play1","rating_causation","{""Q0"":3}","[0]","W4 asked to play with W2","W2 asked to play with W4"
"1370.9999999999418","","","survey-likert-extra-labels","96","521125","0.0-36.0-2.0","91987","2B","conjoined","man","","","W4 and W2 are playing with each other","play1","rating_volition","{""Q0"":3}","[0]","W4 wanted to play with W2","W2 wanted to play with W4"
"null","Mike and Luke are playing with each other","","html-keyboard-response","97","523128","0.0-37.0-0.0","91987","2B","conjoined","man","","null","M4 and M2 are playing with each other","play2","sentence","","","",""
"2732","","","survey-likert-extra-labels","98","525863","0.0-37.0-1.0-0.0","91987","2B","conjoined","man","","","M4 and M2 are playing with each other","play2","rating_causation","{""Q0"":3}","[0]","M4 asked to play with M2","M2 asked to play with M4"
"1596","","","survey-likert-extra-labels","99","527460","0.0-37.0-2.0","91987","2B","conjoined","man","","","M4 and M2 are playing with each other","play2","rating_volition","{""Q0"":3}","[0]","M4 wanted to play with M2","M2 wanted to play with M4"
"null","Luke is reminding Jane","","html-keyboard-response","100","529463","0.0-38.0-0.0","91987","2B","conjoined","man","","null","M2 is reminding W4","remind","sentence","","","",""
"5815","","","survey-likert-extra-labels","101","535279","0.0-38.0-1.0-0.0","91987","2B","conjoined","man","","","M2 is reminding W4","remind","rating_causation","{""Q0"":0}","[0]","M2 is remembering","W4 is remembering"
"5836","","","survey-likert-extra-labels","102","541118","0.0-38.0-2.0","91987","2B","conjoined","man","","","M2 is reminding W4","remind","rating_volition","{""Q0"":0}","[0]","M2 is telling W4 again","W4 is telling M2 again"
"null","Beth and Kate are arguing with each other","","html-keyboard-response","103","543119","0.0-39.0-0.0","91987","2B","conjoined","man","","null","W3 and W1 are arguing with each other","argue1","sentence","","","",""
"1551.9999999998836","","","survey-likert-extra-labels","104","544672","0.0-39.0-1.0-0.0","91987","2B","conjoined","man","","","W3 and W1 are arguing with each other","argue1","rating_causation","{""Q0"":3}","[0]","W3 started an argument with W1","W1 started an argument with W3"
"1374","","","survey-likert-extra-labels","105","546047","0.0-39.0-2.0","91987","2B","conjoined","man","","","W3 and W1 are arguing with each other","argue1","rating_volition","{""Q0"":3}","[0]","W3 wanted to argue with W1","W1 wanted to argue with W3"
"null","Dave and Kate are flirting with each other","","html-keyboard-response","106","548050","0.0-40.0-0.0","91987","2B","conjoined","man","","null","M3 and W1 are flirting with each other","flirt4","sentence","","","",""
"1966","","","survey-likert-extra-labels","107","550017","0.0-40.0-2.0","91987","2B","conjoined","man","","","M3 and W1 are flirting with each other","flirt4","rating_volition","{""Q0"":3}","[0]","W1 wanted to flirt with M3","M3 wanted to flirt with W1"
"2135","","","survey-likert-extra-labels","108","552154","0.0-40.0-3.0-0.0","91987","2B","conjoined","man","","","M3 and W1 are flirting with each other","flirt4","rating_causation","{""Q0"":3}","[0]","W1 started flirting with M3 first","M3 started flirting with W1 first"
"null","Ruth and Mike are kissing each other","","html-keyboard-response","109","554156","0.0-41.0-0.0","91987","2B","conjoined","man","","null","W2 and M4 are kissing each other","kiss4","sentence","","","",""
"3239","","","survey-likert-extra-labels","110","557396","0.0-41.0-1.0-0.0","91987","2B","conjoined","man","","","W2 and M4 are kissing each other","kiss4","rating_causation","{""Q0"":3}","[0]","M4 asked to kiss W2","W2 asked to kiss M4"
"1789","","","survey-likert-extra-labels","111","559186","0.0-41.0-2.0","91987","2B","conjoined","man","","","W2 and M4 are kissing each other","kiss4","rating_volition","{""Q0"":3}","[0]","M4 wanted to kiss W2","W2 wanted to kiss M4"
"null","Luke and Mike are touching each other","","html-keyboard-response","112","561188","0.0-42.0-0.0","91987","2B","conjoined","man","","null","M2 and M4 are touching each other","touch2","sentence","","","",""
"1314","","","survey-likert-extra-labels","113","562503","0.0-42.0-2.0","91987","2B","conjoined","man","","","M2 and M4 are touching each other","touch2","rating_volition","{""Q0"":3}","[0]","M4 wanted to touch M2","M2 wanted to touch M4"
"1934","","","survey-likert-extra-labels","114","564439","0.0-42.0-3.0-0.0","91987","2B","conjoined","man","","","M2 and M4 are touching each other","touch2","rating_causation","{""Q0"":3}","[0]","M4 asked to touch M2","M2 asked to touch M4"
"null","Beth and Kate are shouting at each other","","html-keyboard-response","115","566442","0.0-43.0-0.0","91987","2B","conjoined","man","","null","W3 and W1 are shouting at each other","shout1","sentence","","","",""
"1280","","","survey-likert-extra-labels","116","567723","0.0-43.0-1.0-0.0","91987","2B","conjoined","man","","","W3 and W1 are shouting at each other","shout1","rating_causation","{""Q0"":3}","[0]","W3 shouted at W1 first","W1 shouted at W3 first"
"1282","","","survey-likert-extra-labels","117","569006","0.0-43.0-2.0","91987","2B","conjoined","man","","","W3 and W1 are shouting at each other","shout1","rating_volition","{""Q0"":3}","[0]","W3 wanted to shout at W1","W1 wanted to shout at W3"
"null","Kate and Beth are kissing each other","","html-keyboard-response","118","571007","0.0-44.0-0.0","91987","2B","conjoined","man","","null","W1 and W3 are kissing each other","kiss1","sentence","","","",""
"1643","","","survey-likert-extra-labels","119","572651","0.0-44.0-2.0","91987","2B","conjoined","man","","","W1 and W3 are kissing each other","kiss1","rating_volition","{""Q0"":3}","[0]","W3 wanted to kiss W1","W1 wanted to kiss W3"
"1428","","","survey-likert-extra-labels","120","574080","0.0-44.0-3.0-0.0","91987","2B","conjoined","man","","","W1 and W3 are kissing each other","kiss1","rating_causation","{""Q0"":3}","[0]","W3 asked to kiss W1","W1 asked to kiss W3"
"null","Ruth is teaching Mike","","html-keyboard-response","121","576081","0.0-45.0-0.0","91987","2B","conjoined","man","","null","W2 is teaching M4","teach","sentence","","","",""
"5583","","","survey-likert-extra-labels","122","581665","0.0-45.0-2.0","91987","2B","conjoined","man","","","W2 is teaching M4","teach","rating_volition","{""Q0"":0}","[0]","W2 is educating M4","M4 is educating W2"
"4608.999999999884","","","survey-likert-extra-labels","123","586275","0.0-45.0-3.0-0.0","91987","2B","conjoined","man","","","W2 is teaching M4","teach","rating_causation","{""Q0"":6}","[0]","W2 is learning from M4","M4 is learning from W2"
"null","Ruth is carrying Jane","","html-keyboard-response","124","588277","0.0-46.0-0.0","91987","2B","conjoined","man","","null","W2 is carrying W4","carry","sentence","","","",""
"5366","","","survey-likert-extra-labels","125","593644","0.0-46.0-1.0-0.0","91987","2B","conjoined","man","","","W2 is carrying W4","carry","rating_causation","{""Q0"":6}","[0]","W2 is being moved by W4","W4 is being moved by W2"
"3194.0000000001164","","","survey-likert-extra-labels","126","596839","0.0-46.0-2.0","91987","2B","conjoined","man","","","W2 is carrying W4","carry","rating_volition","{""Q0"":0}","[0]","W2 is transporting W4","W4 is transporting W2"
"null","Ruth and Mike are talking to each other","","html-keyboard-response","127","598841","0.0-47.0-0.0","91987","2B","conjoined","man","","null","W2 and M4 are talking to each other","talk3","sentence","","","",""
"1439","","","survey-likert-extra-labels","128","600281","0.0-47.0-2.0","91987","2B","conjoined","man","","","W2 and M4 are talking to each other","talk3","rating_volition","{""Q0"":3}","[0]","M4 wanted to talk to W2","W2 wanted to talk to M4"
"1439","","","survey-likert-extra-labels","129","601721","0.0-47.0-3.0-0.0","91987","2B","conjoined","man","","","W2 and M4 are talking to each other","talk3","rating_causation","{""Q0"":3}","[0]","M4 started a conversation with W2","W2 started a conversation with M4"
"null","Dave is hiring Kate","","html-keyboard-response","130","603723","0.0-48.0-0.0","91987","2B","conjoined","man","","null","M3 is hiring W1","hire","sentence","","","",""
"3891","","","survey-likert-extra-labels","131","607616","0.0-48.0-1.0-0.0","91987","2B","conjoined","man","","","M3 is hiring W1","hire","rating_causation","{""Q0"":6}","[0]","M3 will work for W1","W1 will work for M3"
"75615.99999999988","","","survey-likert-extra-labels","132","683230","0.0-48.0-2.0","91987","2B","conjoined","man","","","M3 is hiring W1","hire","rating_volition","{""Q0"":0}","[0]","M3 is employing W1","W1 is employing M3"
"null","Jane and Luke are shouting at each other","","html-keyboard-response","133","685234","0.0-49.0-0.0","91987","2B","conjoined","man","","null","W4 and M2 are shouting at each other","shout3","sentence","","","",""
"3010","","","survey-likert-extra-labels","134","688245","0.0-49.0-1.0-0.0","91987","2B","conjoined","man","","","W4 and M2 are shouting at each other","shout3","rating_causation","{""Q0"":3}","[0]","W4 shouted at M2 first","M2 shouted at W4 first"
"1326","","","survey-likert-extra-labels","135","689573","0.0-49.0-2.0","91987","2B","conjoined","man","","","W4 and M2 are shouting at each other","shout3","rating_volition","{""Q0"":3}","[0]","W4 wanted to shout at M2","M2 wanted to shout at W4"
"null","Dave and Kate are touching each other","","html-keyboard-response","136","691576","0.0-50.0-0.0","91987","2B","conjoined","man","","null","M3 and W1 are touching each other","touch4","sentence","","","",""
"1315","","","survey-likert-extra-labels","137","692892","0.0-50.0-1.0-0.0","91987","2B","conjoined","man","","","M3 and W1 are touching each other","touch4","rating_causation","{""Q0"":3}","[0]","W1 asked to touch M3","M3 asked to touch W1"
"2182","","","survey-likert-extra-labels","138","695075","0.0-50.0-2.0","91987","2B","conjoined","man","","","M3 and W1 are touching each other","touch4","rating_volition","{""Q0"":3}","[0]","W1 wanted to touch M3","M3 wanted to touch W1"
"null","Luke and Mike are flirting with each other","","html-keyboard-response","139","697077","0.0-51.0-0.0","91987","2B","conjoined","man","","null","M2 and M4 are flirting with each other","flirt2","sentence","","","",""
"1766","","","survey-likert-extra-labels","140","698844","0.0-51.0-2.0","91987","2B","conjoined","man","","","M2 and M4 are flirting with each other","flirt2","rating_volition","{""Q0"":3}","[0]","M4 wanted to flirt with M2","M2 wanted to flirt with M4"
"2135","","","survey-likert-extra-labels","141","700982","0.0-51.0-3.0-0.0","91987","2B","conjoined","man","","","M2 and M4 are flirting with each other","flirt2","rating_causation","{""Q0"":3}","[0]","M4 started flirting with M2 first","M2 started flirting with M4 first"
"null","Beth is feeding Fred","","html-keyboard-response","142","702984","0.0-52.0-0.0","91987","2B","conjoined","man","","null","W3 is feeding M1","feed","sentence","","","",""
"4104","","","survey-likert-extra-labels","143","707090","0.0-52.0-2.0","91987","2B","conjoined","man","","","W3 is feeding M1","feed","rating_volition","{""Q0"":0}","[0]","W3 is giving M1 food","M1 is giving W3 food"
"3946","","","survey-likert-extra-labels","144","711039","0.0-52.0-3.0-0.0","91987","2B","conjoined","man","","","W3 is feeding M1","feed","rating_causation","{""Q0"":6}","[0]","W3 is eating M1's food","M1 is eating W3's food"
"null","Ruth and Jane are flirting with each other","","html-keyboard-response","145","713042","0.0-53.0-0.0","91987","2B","conjoined","man","","null","W2 and W4 are flirting with each other","flirt1","sentence","","","",""
"1640","","","survey-likert-extra-labels","146","714684","0.0-53.0-1.0-0.0","91987","2B","conjoined","man","","","W2 and W4 are flirting with each other","flirt1","rating_causation","{""Q0"":3}","[0]","W4 started flirting with W2 first","W2 started flirting with W4 first"
"1415","","","survey-likert-extra-labels","147","716101","0.0-53.0-2.0","91987","2B","conjoined","man","","","W2 and W4 are flirting with each other","flirt1","rating_volition","{""Q0"":3}","[0]","W4 wanted to flirt with W2","W2 wanted to flirt with W4"
"null","Luke and Jane are kissing each other","","html-keyboard-response","148","718104","0.0-54.0-0.0","91987","2B","conjoined","man","","null","M2 and W4 are kissing each other","kiss3","sentence","","","",""
"1473","","","survey-likert-extra-labels","149","719577","0.0-54.0-1.0-0.0","91987","2B","conjoined","man","","","M2 and W4 are kissing each other","kiss3","rating_causation","{""Q0"":3}","[0]","W4 asked to kiss M2","M2 asked to kiss W4"
"1327","","","survey-likert-extra-labels","150","720905","0.0-54.0-2.0","91987","2B","conjoined","man","","","M2 and W4 are kissing each other","kiss3","rating_volition","{""Q0"":3}","[0]","W4 wanted to kiss M2","M2 wanted to kiss W4"
"1280","<p>Thank you for completing that task.</p><p>The final part of this session is a short questionnaire.</p><p>Press Continue.</p>","0","html-button-response","151","722188","0.0-55.0","91987","2B","conjoined","man","","","","","","","","",""
"34496","","","survey-text","152","757706","0.0-56.0","91987","2B","conjoined","man","","","","","demographics","{""Q0"":""57"",""Q1"":""English"",""Q2"":""English"",""Q3"":""England"",""Q4"":""English"",""Q5"":""English"",""Q6"":""Male""}","","",""
"1492.9999999998836","<p>Have you lived in the UK for the last 5 years or more?</p>","0","html-button-response","153","759200","0.0-57.0","91987","2B","conjoined","man","","","","","fiveyears","","","",""
"3111.9999999998836","","","survey-text","154","763318","0.0-58.0","91987","2B","conjoined","man","","","","","worker_id","{""Q0"":""5ac9069f1667e40001d889f2""}","","",""
"5694.000000000116","","","external-html","155","769112","0.0-59.0","91987","2B","conjoined","man","debrief.html","","","","","","","",""
